subject,condition,trial,start_time,rt,correct,fact_id,question,answer,alpha
1,3,1,77973.56271,5428.631541,TRUE,0,somalia,mogadishu,0.3
1,3,2,112994.7265,3623.376833,FALSE,0,somalia,mogadishu,0.3
1,3,3,128965.1062,1881.372708,TRUE,1,djibouti,djibouti,0.3
1,3,4,135814.6671,892.04275,TRUE,1,djibouti,djibouti,0.3
1,3,5,144234.7469,1728.048167,TRUE,2,equatorial guinea,malabo,0.3
1,3,6,152085.3245,1491.146292,TRUE,3,cape verde,praia,0.3
1,3,7,156807.2972,1605.556417,FALSE,2,equatorial guinea,malabo,0.3
1,3,8,167521.2883,1123.535125,TRUE,3,cape verde,praia,0.3
1,3,9,172438.3967,1084.470292,FALSE,0,somalia,mogadishu,0.349609375
1,3,10,178137.5946,1773.116916,TRUE,4,niger,niamey,0.3
1,3,11,187623.2033,1232.157625,TRUE,1,djibouti,djibouti,0.250390625
1,3,12,192283.69,1696.64425,TRUE,4,niger,niamey,0.3
1,3,13,196024.3171,3353.855667,TRUE,5,cameroon,yaounde,0.3
1,3,14,201791.5063,1028.388458,TRUE,6,morocco,rabat,0.3
1,3,15,204559.9939,1063.240792,TRUE,5,cameroon,yaounde,0.3
1,3,16,208508.2691,885.007125,TRUE,6,morocco,rabat,0.3
1,3,17,211251.2339,2881.566792,TRUE,2,equatorial guinea,malabo,0.348828125
1,3,18,216269.3469,1071.032542,TRUE,0,somalia,mogadishu,0.34921875
1,3,19,221882.821,1250.111125,TRUE,3,cape verde,praia,0.250390625
1,3,20,224918.0201,1235.569458,TRUE,7,nigeria,abuja,0.3
1,3,21,229072.6275,8738.623416,TRUE,8,burkina faso,ouagadougou,0.3
1,3,22,244270.8913,21029.07958,TRUE,7,nigeria,abuja,0.3
1,3,23,267396.648,4329.288042,FALSE,8,burkina faso,ouagadougou,0.3
1,3,24,277937.9033,2425.079917,TRUE,4,niger,niamey,0.268359375
1,3,25,282045.6238,1022.861333,TRUE,5,cameroon,yaounde,0.250390625
1,3,26,285172.9116,954.927666,TRUE,6,morocco,rabat,0.250390625
1,3,27,288007.8983,2800.235416,TRUE,2,equatorial guinea,malabo,0.3546875
1,3,28,292834.6659,3387.192,TRUE,9,burundi,bujumbura,0.3
1,3,29,300113.9346,inf,TRUE,7,nigeria,abuja,0.349609375
1,3,30,305394.3083,2552.240083,FALSE,9,burundi,bujumbura,0.3
1,3,31,311039.956,1777.157292,TRUE,0,somalia,mogadishu,0.348828125
1,3,32,316740.5258,1303.756,TRUE,10,senegal,dakar,0.3
1,3,33,319936.3393,2512.796292,FALSE,8,burkina faso,ouagadougou,0.344140625
1,3,34,335519.7021,1966.341667,TRUE,10,senegal,dakar,0.3
1,3,35,339127.1641,2391.493542,FALSE,11,gabon,libreville,0.3
1,3,36,344796.5276,4046.17275,TRUE,7,nigeria,abuja,0.39921875
1,3,37,352518.6525,inf,TRUE,11,gabon,libreville,0.3
1,3,38,361063.9223,1578.623917,FALSE,9,burundi,bujumbura,0.349609375
1,3,39,372347.4257,2664.828167,TRUE,2,equatorial guinea,malabo,0.355078125
1,3,40,377067.4325,2814.33625,FALSE,8,burkina faso,ouagadougou,0.39375
1,3,41,391178.0122,2970.958334,TRUE,7,nigeria,abuja,0.424609375
1,3,42,397566.435,1194.951916,TRUE,10,senegal,dakar,0.250390625
1,3,43,400541.395,2448.276167,TRUE,12,botswana,gaborone,0.3
1,3,44,406283.0085,3176.328625,TRUE,11,gabon,libreville,0.349609375
1,3,45,412290.7059,1948.387792,TRUE,12,botswana,gaborone,0.3
1,3,46,416463.8902,4121.57825,FALSE,9,burundi,bujumbura,0.39921875
1,3,47,422510.312,inf,FALSE,8,burkina faso,ouagadougou,0.420703125
1,3,48,437048.193,2819.132625,TRUE,7,nigeria,abuja,0.43671875
1,3,49,441510.6817,1278.583375,TRUE,13,angola,luanda,0.3
1,3,50,444536.2813,6705.319167,FALSE,9,burundi,bujumbura,0.448828125
1,3,51,467848.3916,inf,FALSE,13,angola,luanda,0.3
1,3,52,476656.472,1130.729667,TRUE,11,gabon,libreville,0.34921875
1,3,53,480702.7749,inf,FALSE,9,burundi,bujumbura,0.45234375
1,3,54,486552.0455,1418.781208,TRUE,8,burkina faso,ouagadougou,0.41953125
1,3,55,497318.7007,1591.404333,TRUE,12,botswana,gaborone,0.250390625
1,3,56,502910.9988,1714.004083,TRUE,7,nigeria,abuja,0.436328125
1,3,57,506397.6509,2521.605334,TRUE,0,somalia,mogadishu,0.33671875
1,3,58,512740.9715,2997.877167,TRUE,2,equatorial guinea,malabo,0.365625
1,3,59,517704.901,3349.669375,FALSE,9,burundi,bujumbura,0.452734375
1,3,60,525262.58,2568.463583,TRUE,1,djibouti,djibouti,0.246875
1,3,61,530247.2625,3782.023166,FALSE,13,angola,luanda,0.349609375
1,3,62,536687.7513,4013.916791,TRUE,4,niger,niamey,0.275
1,3,63,543778.6225,1573.45225,FALSE,8,burkina faso,ouagadougou,0.444140625
1,3,64,696485.3415,12756.01288,FALSE,9,burundi,bujumbura,0.478125
1,3,65,712629.7314,2156.576709,TRUE,13,angola,luanda,0.34921875
1,3,66,716953.4132,1833.726834,TRUE,7,nigeria,abuja,0.4359375
1,3,67,720394.214,1167.869,FALSE,8,burkina faso,ouagadougou,0.4640625
1,3,68,726232.1035,inf,FALSE,11,gabon,libreville,0.373828125
1,3,69,743781.9076,3846.451167,FALSE,9,burundi,bujumbura,0.526953125
1,3,70,749593.0022,2515.092875,FALSE,2,equatorial guinea,malabo,0.366015625
1,3,71,754448.4652,2244.066208,TRUE,8,burkina faso,ouagadougou,0.463671875
1,3,72,763593.7262,3291.29175,FALSE,9,burundi,bujumbura,0.52734375
1,3,73,768020.3598,6932.996917,TRUE,3,cape verde,praia,0.3
1,3,74,776790.4293,1924.509208,TRUE,7,nigeria,abuja,0.386328125
1,3,75,780969.2343,975.097208,TRUE,6,morocco,rabat,0.20078125
1,3,76,783351.9253,1151.054875,TRUE,5,cameroon,yaounde,0.20078125
1,3,77,786780.4054,6213.351833,TRUE,11,gabon,libreville,0.37734375
1,3,78,796183.3369,2875.887917,FALSE,9,burundi,bujumbura,0.527734375
1,3,79,803585.7276,2074.104625,TRUE,13,angola,luanda,0.299609375
1,3,80,808062.2877,1476.959916,TRUE,0,somalia,mogadishu,0.287109375
1,3,81,813229.9646,inf,TRUE,8,burkina faso,ouagadougou,0.46484375
1,3,82,825639.9737,2314.7765,FALSE,9,burundi,bujumbura,0.528125
1,3,83,832050.8802,1271.079791,TRUE,10,senegal,dakar,0.20078125
1,3,84,834940.0533,3127.598208,TRUE,4,niger,niamey,0.314453125
1,3,85,839896.4345,1235.107292,TRUE,3,cape verde,praia,0.250390625
1,3,86,842661.7282,2250.869958,TRUE,12,botswana,gaborone,0.21328125
1,3,87,847688.951,1225.46625,TRUE,14,namibia,windhoek,0.3
1,3,88,852045.5046,1310.003708,TRUE,15,central african republic,bangui,0.3
1,3,89,856143.3596,1155.26225,TRUE,14,namibia,windhoek,0.3
1,3,90,860288.5347,751.900417,TRUE,15,central african republic,bangui,0.3
1,3,91,862901.6836,4449.559417,FALSE,9,burundi,bujumbura,0.577734375
1,3,92,869218.9533,1386.256541,TRUE,8,burkina faso,ouagadougou,0.464453125
1,3,93,883716.0271,2349.318041,TRUE,9,burundi,bujumbura,0.57734375
1,3,94,889934.0485,3486.661208,FALSE,2,equatorial guinea,malabo,0.38515625
1,3,95,894723.7449,2801.745292,TRUE,11,gabon,libreville,0.377734375
1,3,96,899809.0108,6209.100292,FALSE,9,burundi,bujumbura,0.626953125
1,3,97,910130.7238,2198.378541,TRUE,14,namibia,windhoek,0.268359375
1,3,98,915907.9396,4457.9245,TRUE,9,burundi,bujumbura,0.634375
1,3,99,923240.7811,2464.197875,FALSE,15,central african republic,bangui,0.349609375
1,3,100,926877.5977,3231.408292,FALSE,9,burundi,bujumbura,0.634765625
1,3,101,934157.3424,1212.108917,TRUE,16,togo,lome,0.3
1,3,102,936858.3295,8763.091792,TRUE,8,burkina faso,ouagadougou,0.46484375
1,3,103,952262.7919,1165.162542,TRUE,16,togo,lome,0.3
1,3,104,954879.266,1970.169958,TRUE,9,burundi,bujumbura,0.634375
1,3,105,959583.9298,1542.840541,TRUE,4,niger,niamey,0.3140625
1,3,106,963817.321,4249.01425,FALSE,15,central african republic,bangui,0.39921875
1,3,107,969121.6515,2536.706666,FALSE,9,burundi,bujumbura,0.683984375
1,3,108,975638.6294,4077.905792,FALSE,2,equatorial guinea,malabo,0.412109375
1,3,109,981660.1809,1891.349542,TRUE,9,burundi,bujumbura,0.68359375
1,3,110,986568.3442,1551.019542,TRUE,17,mauritius,port louis,0.3
1,3,111,991470.8777,2457.924542,FALSE,9,burundi,bujumbura,0.733203125
1,3,112,997410.8605,1902.993625,FALSE,17,mauritius,port louis,0.3
1,3,113,1000815.569,2692.520917,FALSE,9,burundi,bujumbura,0.7578125
1,3,114,1006787.763,2762.169959,TRUE,15,central african republic,bangui,0.417578125
1,3,115,1011848.957,2647.237209,FALSE,9,burundi,bujumbura,0.807421875
1,3,116,1018236.779,915.867042,TRUE,16,togo,lome,0.250390625
1,3,117,1020720.59,2406.286542,FALSE,9,burundi,bujumbura,0.85703125
1,3,118,1029165.012,1812.303792,FALSE,8,burkina faso,ouagadougou,0.514453125
1,3,119,1038459.505,5311.529709,TRUE,9,burundi,bujumbura,0.856640625
1,3,120,1046912.222,1059.746791,TRUE,11,gabon,libreville,0.37734375
1,3,121,1050153.069,3203.721583,TRUE,9,burundi,bujumbura,0.85625
1,3,122,1056868.66,1534.796167,FALSE,8,burkina faso,ouagadougou,0.54375
1,3,123,1066914.337,7983.258833,TRUE,9,burundi,bujumbura,0.862109375
1,3,124,1077956.525,1671.82975,TRUE,15,central african republic,bangui,0.40546875
1,3,125,1081186.937,2655.517208,TRUE,9,burundi,bujumbura,0.85234375
1,3,126,1086317.362,1931.408208,TRUE,17,mauritius,port louis,0.250390625
1,3,127,1090873.552,2967.741916,TRUE,9,burundi,bujumbura,0.852734375
1,3,128,1096285.257,1457.663709,FALSE,8,burkina faso,ouagadougou,0.552734375
1,3,129,1108710.718,inf,TRUE,9,burundi,bujumbura,0.85625
1,3,130,1114624.616,inf,FALSE,2,equatorial guinea,malabo,0.43359375
1,3,131,1122009.878,2175.102292,TRUE,9,burundi,bujumbura,0.855859375
1,3,132,1126754.534,2261.556541,FALSE,8,burkina faso,ouagadougou,0.565625
1,3,133,1135515.529,1905.816208,TRUE,9,burundi,bujumbura,0.80625
1,3,134,1139697.377,3609.331958,TRUE,7,nigeria,abuja,0.38671875
1,3,135,1145011.699,1827.197208,TRUE,9,burundi,bujumbura,0.756640625
1,3,136,1149674.82,1385.635583,TRUE,8,burkina faso,ouagadougou,0.565234375
1,3,137,1156663.369,1552.153584,TRUE,1,djibouti,djibouti,0.197265625
1,3,138,1161050.166,3072.141625,TRUE,9,burundi,bujumbura,0.75703125
1,3,139,1166346.815,1628.666167,TRUE,15,central african republic,bangui,0.404296875
1,3,140,1169629.969,3697.368,FALSE,2,equatorial guinea,malabo,0.458203125
1,3,141,1175923.041,2271.844583,TRUE,9,burundi,bujumbura,0.757421875
1,3,142,1180352.448,1129.460125,TRUE,14,namibia,windhoek,0.21875
1,3,143,1183769.151,1646.398416,FALSE,8,burkina faso,ouagadougou,0.60859375
1,3,144,1190643.064,1478.742042,TRUE,9,burundi,bujumbura,0.7328125
1,3,145,1195141.704,1025.6395,TRUE,8,burkina faso,ouagadougou,0.608203125
1,3,146,1200305.914,1734.556708,TRUE,11,gabon,libreville,0.376953125
1,3,147,1204957.401,4892.138459,TRUE,2,equatorial guinea,malabo,0.465625
1,3,148,1211945.067,1987.38975,TRUE,8,burkina faso,ouagadougou,0.58359375
1,3,149,1225799.353,3383.2375,TRUE,9,burundi,bujumbura,0.761328125
1,3,150,1231930.109,2092.91625,TRUE,4,niger,niamey,0.289453125
1,3,151,1236001.486,3384.020875,TRUE,9,burundi,bujumbura,0.79609375
1,3,152,1244338.355,2376.450375,TRUE,13,angola,luanda,0.29296875
1,3,153,1249132.529,2585.906833,TRUE,9,burundi,bujumbura,0.790234375
1,3,154,1254181.689,1098.006541,TRUE,8,burkina faso,ouagadougou,0.533984375
1,3,155,1260355.908,2246.549333,TRUE,9,burundi,bujumbura,0.7890625
1,3,156,1267168.761,inf,TRUE,2,equatorial guinea,malabo,0.472265625
1,3,157,1273454.993,inf,TRUE,9,burundi,bujumbura,0.795703125
2,1,1,174106.2551,2731.1014,TRUE,0,gabon,libreville,0.3
2,1,2,180242.3277,823.0495,TRUE,0,gabon,libreville,0.3
2,1,3,183830.9045,3250.4203,TRUE,1,central african republic,bangui,0.3
2,1,4,189264.4081,745.0185,TRUE,1,central african republic,bangui,0.3
2,1,5,192398.0651,2179.3549,TRUE,2,guinea-bissau,bissau,0.3
2,1,6,196747.6482,3309.6358,TRUE,3,sao tome and principe,sao tome,0.3
2,1,7,202164.2183,1205.0545,TRUE,2,guinea-bissau,bissau,0.3
2,1,8,205414.7102,1018.6591,TRUE,3,sao tome and principe,sao tome,0.3
2,1,9,208497.8074,1655.4532,TRUE,4,rwanda,kigali,0.3
2,1,10,213747.6066,2153.6453,TRUE,5,eritrea,asmara,0.3
2,1,11,217880.887,1556.464,FALSE,4,rwanda,kigali,0.3
2,1,12,221614.9531,4762.367,FALSE,5,eritrea,asmara,0.3
2,1,13,228664.9397,inf,TRUE,0,gabon,libreville,0.349609375
2,1,14,239414.9584,9282.2772,FALSE,1,central african republic,bangui,0.349609375
2,1,15,250814.9865,1002.1716,TRUE,2,guinea-bissau,bissau,0.250390625
2,1,16,253949.5383,827.7732,TRUE,3,sao tome and principe,sao tome,0.250390625
2,1,17,257048.4281,2580.7644,TRUE,6,seychelles,victoria,0.3
2,1,18,264581.9173,1679.3725,TRUE,7,swaziland,mbabane,0.3
2,1,19,269682.009,5651.2446,FALSE,6,seychelles,victoria,0.3
2,1,20,277082.2036,1183.0225,FALSE,7,swaziland,mbabane,0.3
2,1,21,280098.8863,5758.3929,FALSE,4,rwanda,kigali,0.349609375
2,1,22,288365.6757,3779.5306,FALSE,5,eritrea,asmara,0.349609375
2,1,23,296132.3411,1448.8339,TRUE,0,gabon,libreville,0.3
2,1,24,300049.256,7275.8985,TRUE,1,central african republic,bangui,0.39921875
2,1,25,309799.2642,2069.8469,TRUE,8,mozambique,maputo,0.3
2,1,26,314632.6504,1328.4205,TRUE,9,tunisia,tunis,0.3
2,1,27,318782.7761,1874.2619,FALSE,8,mozambique,maputo,0.3
2,1,28,322900.6532,3176.4956,TRUE,9,tunisia,tunis,0.3
2,1,29,327732.6802,7648.3391,FALSE,4,rwanda,kigali,0.39921875
2,1,30,337200.2206,inf,TRUE,1,central african republic,bangui,0.436328125
2,1,31,351633.6774,2343.3114,TRUE,6,seychelles,victoria,0.275390625
2,1,32,356516.5781,1592.4677,TRUE,5,eritrea,asmara,0.34921875
2,1,33,359900.1177,6052.9102,FALSE,7,swaziland,mbabane,0.349609375
2,1,34,368083.1816,7429.8266,FALSE,4,rwanda,kigali,0.448828125
2,1,35,378233.5839,2415.4485,TRUE,1,central african republic,bangui,0.43046875
2,1,36,382900.3444,2884.6677,FALSE,8,mozambique,maputo,0.349609375
2,1,37,388884.7798,924.1502,TRUE,9,tunisia,tunis,0.250390625
2,1,38,391633.8787,4623.0308,FALSE,4,rwanda,kigali,0.46171875
2,1,39,398400.6356,inf,FALSE,7,swaziland,mbabane,0.39921875
2,1,40,405767.3291,3705.7201,FALSE,10,ghana,accra,0.3
2,1,41,410550.549,2330.4142,TRUE,11,comoros,moroni,0.3
2,1,42,416467.2164,1825.7593,FALSE,10,ghana,accra,0.3
2,1,43,421034.091,7330.8206,FALSE,11,comoros,moroni,0.3
2,1,44,430217.9076,10979.0314,FALSE,4,rwanda,kigali,0.462109375
2,1,45,443786.1261,2082.8238,FALSE,8,mozambique,maputo,0.39921875
2,1,46,447667.5632,inf,FALSE,7,swaziland,mbabane,0.448828125
2,1,47,452118.1287,1634.6638,FALSE,1,central african republic,bangui,0.440234375
2,1,48,456234.211,2506.5922,TRUE,5,eritrea,asmara,0.343359375
2,1,49,460501.0675,2943.7796,TRUE,12,senegal,dakar,0.3
2,1,50,465368.0326,7836.8632,FALSE,7,swaziland,mbabane,0.46796875
2,1,51,477717.9304,2494.8635,FALSE,12,senegal,dakar,0.3
2,1,52,482735.0762,2977.8038,FALSE,8,mozambique,maputo,0.437890625
2,1,53,487718.0617,13158.7178,FALSE,10,ghana,accra,0.349609375
2,1,54,504552.0232,9440.9055,FALSE,4,rwanda,kigali,0.51171875
2,1,55,515085.5833,5095.1288,FALSE,11,comoros,moroni,0.349609375
2,1,56,521252.5865,inf,FALSE,7,swaziland,mbabane,0.468359375
2,1,57,528168.8743,15263.7407,FALSE,4,rwanda,kigali,0.561328125
2,1,58,545352.2787,4288.4259,FALSE,8,mozambique,maputo,0.43828125
2,1,59,551919.1852,1401.4492,FALSE,4,rwanda,kigali,0.5734375
2,1,60,555602.6205,1274.0877,TRUE,1,central african republic,bangui,0.43984375
2,1,61,558585.7729,8818.8768,FALSE,10,ghana,accra,0.39921875
2,1,62,569385.9139,2758.705,FALSE,4,rwanda,kigali,0.573828125
2,1,63,573902.6701,inf,FALSE,12,senegal,dakar,0.349609375
2,1,64,580269.6118,11515.0608,FALSE,7,swaziland,mbabane,0.51796875
2,1,65,594102.9276,1489.6466,FALSE,11,comoros,moroni,0.39921875
2,1,66,597553.2496,12183.2349,FALSE,4,rwanda,kigali,0.60546875
2,1,67,611536.4055,2128.1715,FALSE,7,swaziland,mbabane,0.541015625
2,1,68,615519.7843,1288.7864,FALSE,10,ghana,accra,0.426171875
2,1,69,619020.0126,576.5237,FALSE,4,rwanda,kigali,0.655078125
2,1,70,621536.5613,inf,FALSE,8,mozambique,maputo,0.487890625
2,1,71,627137.3885,1599.2227,TRUE,4,rwanda,kigali,0.6546875
2,1,72,630603.3053,2529.206,FALSE,7,swaziland,mbabane,0.55390625
2,1,73,635070.3528,1162.1424,FALSE,11,comoros,moroni,0.411328125
2,1,74,638170.1411,4658.4915,FALSE,0,gabon,libreville,0.349609375
2,1,75,644537.2769,inf,FALSE,4,rwanda,kigali,0.691796875
2,1,76,659271.2079,2929.2187,FALSE,8,mozambique,maputo,0.4984375
2,1,77,665889.1505,2203.2383,FALSE,4,rwanda,kigali,0.69765625
2,1,78,670874.2019,1562.3395,TRUE,12,senegal,dakar,0.34921875
2,1,79,674039.3385,1545.1172,TRUE,7,swaziland,mbabane,0.541796875
2,1,80,678170.8465,6013.5768,FALSE,4,rwanda,kigali,0.747265625
2,1,81,686220.9646,1895.5645,TRUE,1,central african republic,bangui,0.414453125
2,1,82,691454.5031,1293.9791,TRUE,4,rwanda,kigali,0.746875
2,1,83,695921.2642,7687.0984,FALSE,10,ghana,accra,0.45
2,1,84,705755.1335,inf,TRUE,4,rwanda,kigali,0.769921875
2,1,85,712488.3844,6187.9063,FALSE,8,mozambique,maputo,0.499609375
2,1,86,720571.6574,1600.7124,TRUE,4,rwanda,kigali,0.753125
2,1,87,723988.1445,6560.1674,TRUE,11,comoros,moroni,0.41484375
2,1,88,732988.4256,995.874,TRUE,4,rwanda,kigali,0.703515625
2,1,89,735788.7095,1803.7223,TRUE,7,swaziland,mbabane,0.54140625
2,1,90,741455.203,7753.0962,FALSE,5,eritrea,asmara,0.38671875
2,1,91,755805.2609,7731.1528,FALSE,10,ghana,accra,0.462109375
2,1,92,766072.4046,1115.8968,FALSE,4,rwanda,kigali,0.70390625
2,1,93,770638.5907,1725.6758,TRUE,6,seychelles,victoria,0.22578125
2,1,94,775038.7558,2401.5117,FALSE,0,gabon,libreville,0.35625
2,1,95,780205.5465,inf,FALSE,8,mozambique,maputo,0.54921875
2,1,96,784888.8401,6947.4605,FALSE,4,rwanda,kigali,0.753515625
2,1,97,793772.0389,23236.3356,FALSE,7,swaziland,mbabane,0.587890625
2,1,98,818974.7835,1913.4583,TRUE,4,rwanda,kigali,0.70390625
2,1,99,822789.628,15046.4072,FALSE,8,mozambique,maputo,0.552734375
2,1,100,839940.0126,2396.1087,TRUE,7,swaziland,mbabane,0.53828125
2,1,101,844573.2039,6270.9017,FALSE,10,ghana,accra,0.4734375
2,1,102,852906.7802,1121.323,TRUE,4,rwanda,kigali,0.654296875
2,1,103,855823.2842,5568.8459,FALSE,5,eritrea,asmara,0.388671875
2,1,104,863323.433,24100.6382,FALSE,8,mozambique,maputo,0.55546875
2,1,105,888507.3469,1840.6997,TRUE,11,comoros,moroni,0.408203125
2,1,106,893440.9152,1487.0542,TRUE,12,senegal,dakar,0.299609375
2,1,107,896623.4797,908.5854001,TRUE,3,sao tome and principe,sao tome,0.20078125
2,1,108,900474.5066,1265.5423,TRUE,2,guinea-bissau,bissau,0.20078125
2,1,109,903773.8416,10670.2411,FALSE,8,mozambique,maputo,0.580078125
2,1,110,918890.5667,2261.4212,TRUE,10,ghana,accra,0.473046875
2,1,111,923724.0531,5519.8455,TRUE,4,rwanda,kigali,0.703125
2,1,112,932690.8851,2477.0675,FALSE,8,mozambique,maputo,0.6046875
2,1,113,941191.064,3032.8051,FALSE,4,rwanda,kigali,0.703515625
2,1,114,947674.9331,2468.9277,TRUE,7,swaziland,mbabane,0.494921875
2,1,115,952724.5921,2719.3611,FALSE,1,central african republic,bangui,0.41796875
2,1,116,957941.3446,6842.5558,FALSE,4,rwanda,kigali,0.70390625
2,1,117,967807.914,1451.9877,FALSE,8,mozambique,maputo,0.616796875
2,1,118,972007.9167,1131.9279,FALSE,0,gabon,libreville,0.380859375
2,1,119,974807.9196,3207.9842,FALSE,4,rwanda,kigali,0.753515625
2,1,120,980975.0945,1416.7464,TRUE,9,tunisia,tunis,0.20078125
2,1,121,984141.6886,4422.1901,FALSE,4,rwanda,kigali,0.76015625
2,1,122,990575.2036,1268.6502,TRUE,8,mozambique,maputo,0.61640625
2,1,123,994858.5078,865.3389999,TRUE,4,rwanda,kigali,0.759765625
2,1,124,997975.2866,2252.5566,FALSE,10,ghana,accra,0.49765625
2,1,125,1002641.929,1049.9719,TRUE,4,rwanda,kigali,0.759375
2,1,126,1005493.383,2746.4493,FALSE,5,eritrea,asmara,0.3890625
2,1,127,1010308.687,1307.081,TRUE,11,comoros,moroni,0.4078125
2,1,128,1013392.33,1711.4898,TRUE,8,mozambique,maputo,0.616015625
2,1,129,1017592.14,7659.7347,TRUE,4,rwanda,kigali,0.801953125
2,1,130,1027058.985,13304.8588,FALSE,10,ghana,accra,0.505078125
2,1,131,1042077.294,3726.4515,TRUE,4,rwanda,kigali,0.821875
2,1,132,1047692.96,1370.8188,TRUE,8,mozambique,maputo,0.56640625
2,1,133,1051292.804,7174.9353,FALSE,4,rwanda,kigali,0.822265625
2,1,134,1060209.395,6386.2688,FALSE,0,gabon,libreville,0.39296875
2,1,135,1068759.546,2044.1724,TRUE,4,rwanda,kigali,0.82109375
2,1,136,1072642.536,1781.1115,TRUE,1,central african republic,bangui,0.368359375
2,1,137,1076159.453,3340.2414,TRUE,4,rwanda,kigali,0.860546875
2,1,138,1081309.646,11098.0285,FALSE,10,ghana,accra,0.5265625
2,1,139,1094209.978,1481.6101,TRUE,4,rwanda,kigali,0.82109375
2,1,140,1098376.886,1894.7406,TRUE,7,swaziland,mbabane,0.49453125
2,1,141,1102676.23,899.3219,TRUE,4,rwanda,kigali,0.771484375
2,1,142,1105359.958,12739.7035,FALSE,10,ghana,accra,0.539453125
2,1,143,1119960.542,859.0184,TRUE,4,rwanda,kigali,0.721875
2,1,144,1122626.575,1904.9735,TRUE,8,mozambique,maputo,0.516796875
2,1,145,1128543.493,1400.2504,TRUE,11,comoros,moroni,0.358203125
2,1,146,1132160.328,8443.1741,FALSE,5,eritrea,asmara,0.426171875
2,1,147,1142327.128,2768.4595,FALSE,10,ghana,accra,0.58359375
2,1,148,1146893.999,4833.4846,TRUE,0,gabon,libreville,0.398828125
2,1,149,1154210.303,1929.1627,TRUE,10,ghana,accra,0.583203125
2,1,150,1157977.618,1381.9166,TRUE,4,rwanda,kigali,0.672265625
2,1,151,1161093.952,1637.5343,TRUE,7,swaziland,mbabane,0.494140625
2,1,152,1164864.134,10307.3396,FALSE,5,eritrea,asmara,0.43203125
2,1,153,1177560.925,6386.5716,FALSE,10,ghana,accra,0.6265625
2,1,154,1185761.236,3190.3581,FALSE,13,guinea,conakry,0.3
2,1,155,1190027.752,inf,TRUE,10,ghana,accra,0.633203125
2,1,156,1198727.801,1351.5959,FALSE,13,guinea,conakry,0.3
2,1,157,1202145.802,1105.661,FALSE,10,ghana,accra,0.6484375
2,1,158,1205377.846,4785.587,FALSE,14,ivory coast,yamoussoukro,0.3
2,1,159,1211244.414,1615.0567,TRUE,10,ghana,accra,0.648046875
2,1,160,1216777.878,2149.6142,FALSE,14,ivory coast,yamoussoukro,0.3
2,1,161,1228578.23,1317.1762,TRUE,10,ghana,accra,0.64765625
2,1,162,1232011.449,inf,FALSE,4,rwanda,kigali,0.67265625
2,1,163,1244461.864,10233.5207,TRUE,5,eritrea,asmara,0.450390625
2,1,164,1256361.896,1033.5063,TRUE,10,ghana,accra,0.598046875
2,1,165,1259411.791,2003.5264,FALSE,13,guinea,conakry,0.349609375
2,1,166,1262978.833,1192.5161,TRUE,7,swaziland,mbabane,0.44453125
2,1,167,1266595.062,2204.2437,TRUE,0,gabon,libreville,0.3984375
2,1,168,1271245.178,3014.1395,TRUE,4,rwanda,kigali,0.709765625
2,1,169,1276695.355,2307.9808,FALSE,14,ivory coast,yamoussoukro,0.349609375
2,1,170,1287845.739,3257.5702,FALSE,4,rwanda,kigali,0.71640625
2,1,171,1293912.082,2555.2351,TRUE,8,mozambique,maputo,0.5046875
2,1,172,1298780.162,1963.1358,FALSE,4,rwanda,kigali,0.753515625
2,1,173,1302762.39,1268.8416,TRUE,5,eritrea,asmara,0.45
2,1,174,1305812.58,3430.7121,TRUE,4,rwanda,kigali,0.76015625
2,1,175,1311079.584,11355.6695,FALSE,13,guinea,conakry,0.39921875
2,1,176,1325512.727,inf,TRUE,4,rwanda,kigali,0.801171875
2,1,177,1339513.473,1573.6405,TRUE,10,ghana,accra,0.5484375
2,1,178,1342946.446,1472.6777,TRUE,4,rwanda,kigali,0.80078125
2,1,179,1346596.716,1934.4805,FALSE,14,ivory coast,yamoussoukro,0.39921875
2,1,180,1356796.736,4714.5211,TRUE,4,rwanda,kigali,0.850390625
2,1,181,1363498.324,inf,FALSE,13,guinea,conakry,0.448828125
3,3,1,35740.44933,4509.208417,TRUE,0,djibouti,djibouti,0.3
3,3,2,53127.82883,1354.812792,TRUE,0,djibouti,djibouti,0.3
3,3,3,61630.24,1102.075791,TRUE,1,lesotho,maseru,0.3
3,3,4,75239.0235,930.632083,FALSE,1,lesotho,maseru,0.3
3,3,5,86164.16667,824.794459,TRUE,2,kenya,nairobi,0.3
3,3,6,94699.34046,2376.107,TRUE,3,uganda,kampala,0.3
3,3,7,100743.6871,1184.684416,TRUE,2,kenya,nairobi,0.3
3,3,8,107577.5456,2008.850125,FALSE,3,uganda,kampala,0.3
3,3,9,115208.8677,1043.948708,TRUE,0,djibouti,djibouti,0.250390625
3,3,10,119614.9453,1083.864667,TRUE,4,nigeria,abuja,0.3
3,3,11,125620.4021,1963.278708,FALSE,1,lesotho,maseru,0.349609375
3,3,12,130572.102,3987.336125,FALSE,4,nigeria,abuja,0.3
3,3,13,144983.3513,2315.145417,TRUE,5,south africa,cape town,0.3
3,3,14,149924.285,inf,TRUE,6,guinea,conakry,0.3
3,3,15,164917.6108,2188.228583,TRUE,5,south africa,cape town,0.3
3,3,16,174180.3467,2314.936167,FALSE,6,guinea,conakry,0.3
3,3,17,187092.7891,3357.14225,FALSE,2,kenya,nairobi,0.349609375
3,3,18,198620.5839,3851.380875,FALSE,3,uganda,kampala,0.349609375
3,3,19,209654.8409,2836.466375,FALSE,1,lesotho,maseru,0.39921875
3,3,20,215116.2521,3000.3395,FALSE,4,nigeria,abuja,0.349609375
3,3,21,219783.1483,865.713917,TRUE,5,south africa,cape town,0.250390625
3,3,22,223152.1564,2356.404541,FALSE,2,kenya,nairobi,0.37890625
3,3,23,231146.4514,2864.729958,FALSE,6,guinea,conakry,0.349609375
3,3,24,243614.988,inf,FALSE,1,lesotho,maseru,0.429296875
3,3,25,250940.8558,1190.306834,FALSE,3,uganda,kampala,0.39921875
3,3,26,257375.9987,6382.794959,FALSE,4,nigeria,abuja,0.39921875
3,3,27,266109.6955,5261.831625,FALSE,7,cape verde,praia,0.3
3,3,28,274115.786,inf,FALSE,1,lesotho,maseru,0.4296875
3,3,29,283792.5262,1630.203083,FALSE,7,cape verde,praia,0.3
3,3,30,291678.598,9258.105208,FALSE,3,uganda,kampala,0.441796875
3,3,31,304779.5599,inf,FALSE,2,kenya,nairobi,0.379296875
3,3,32,319904.4463,inf,FALSE,4,nigeria,abuja,0.448828125
3,3,33,341813.0578,2357.786417,FALSE,6,guinea,conakry,0.39921875
3,3,34,345847.8527,923.247834,FALSE,3,uganda,kampala,0.44296875
3,3,35,348339.1132,1470.602208,FALSE,4,nigeria,abuja,0.46171875
3,3,36,351557.3342,inf,FALSE,1,lesotho,maseru,0.479296875
3,3,37,358271.9147,1220.033667,FALSE,7,cape verde,praia,0.349609375
3,3,38,368912.4952,2362.307875,FALSE,6,guinea,conakry,0.405859375
3,3,39,375872.0692,2323.673875,FALSE,1,lesotho,maseru,0.50390625
3,3,40,380019.3259,1965.828875,FALSE,4,nigeria,abuja,0.462109375
3,3,41,383025.3995,1789.892542,FALSE,3,uganda,kampala,0.443359375
3,3,42,386387.1283,2520.010375,FALSE,2,kenya,nairobi,0.42890625
3,3,43,394500.6572,1516.414875,FALSE,1,lesotho,maseru,0.516796875
3,3,44,397288.2046,1096.949,TRUE,7,cape verde,praia,0.34921875
3,3,45,401852.9639,2184.390667,TRUE,8,niger,niamey,0.3
3,3,46,406151.8981,2267.517208,TRUE,9,comoros,moroni,0.3
3,3,47,411939.5033,2758.830792,FALSE,8,niger,niamey,0.3
3,3,48,420334.6414,inf,FALSE,9,comoros,moroni,0.3
3,3,49,434966.8234,1907.551042,FALSE,1,lesotho,maseru,0.5546875
3,3,50,438023.8389,3519.606334,FALSE,2,kenya,nairobi,0.466015625
3,3,51,443857.5998,1008.020667,FALSE,4,nigeria,abuja,0.51171875
3,3,52,446661.6808,4386.599875,FALSE,6,guinea,conakry,0.41484375
3,3,53,452240.3477,938.418,FALSE,1,lesotho,maseru,0.586328125
3,3,54,454271.1985,inf,FALSE,3,uganda,kampala,0.49296875
3,3,55,461009.4195,1611.486542,TRUE,4,nigeria,abuja,0.511328125
3,3,56,465187.4826,1708.03225,FALSE,1,lesotho,maseru,0.61171875
3,3,57,470853.5595,6276.052917,FALSE,2,kenya,nairobi,0.4703125
3,3,58,480007.7521,1512.949792,FALSE,1,lesotho,maseru,0.649609375
3,3,59,483906.0163,inf,FALSE,3,uganda,kampala,0.526953125
3,3,60,491898.4154,1275.772292,FALSE,1,lesotho,maseru,0.6765625
3,3,61,494525.754,4700.222625,FALSE,8,niger,niamey,0.349609375
3,3,62,503104.6853,1850.797667,FALSE,1,lesotho,maseru,0.726171875
3,3,63,506123.617,1385.423166,FALSE,9,comoros,moroni,0.349609375
3,3,64,508822.3804,680.008541,FALSE,1,lesotho,maseru,0.7640625
3,3,65,510734.6043,2084.968917,FALSE,3,uganda,kampala,0.5453125
3,3,66,515929.3452,805.56,FALSE,1,lesotho,maseru,0.801953125
3,3,67,518011.0375,1756.479458,FALSE,4,nigeria,abuja,0.54921875
3,3,68,522244.6496,3929.665792,FALSE,1,lesotho,maseru,0.828125
3,3,69,529622.7833,1032.618333,FALSE,2,kenya,nairobi,0.494921875
3,3,70,532058.5853,1380.184084,FALSE,1,lesotho,maseru,0.877734375
3,3,71,535042.7205,1642.811792,TRUE,4,nigeria,abuja,0.544140625
3,3,72,539930.8479,inf,FALSE,1,lesotho,maseru,0.92734375
3,3,73,549569.8271,4032.457458,FALSE,3,uganda,kampala,0.569921875
3,3,74,555107.3582,6426.113167,FALSE,1,lesotho,maseru,0.926953125
3,3,75,571175.8368,1562.881791,FALSE,6,guinea,conakry,0.464453125
3,3,76,573920.691,980.923042,FALSE,1,lesotho,maseru,0.90234375
3,3,77,577690.2257,4042.564333,FALSE,3,uganda,kampala,0.60703125
3,3,78,583105.8685,774.108917,FALSE,1,lesotho,maseru,0.902734375
3,3,79,593200.3612,1642.415333,FALSE,8,niger,niamey,0.39921875
3,3,80,599082.498,1369.366792,TRUE,1,lesotho,maseru,0.88984375
3,3,81,604398.6007,6866.40325,FALSE,3,uganda,kampala,0.618359375
3,3,82,612591.0237,1210.905792,TRUE,1,lesotho,maseru,0.858203125
3,3,83,616291.7289,1117.173375,FALSE,4,nigeria,abuja,0.54453125
3,3,84,619924.7904,2028.401166,TRUE,1,lesotho,maseru,0.80859375
3,3,85,624616.7178,2227.6045,FALSE,2,kenya,nairobi,0.51953125
3,3,86,629285.9292,1970.091666,FALSE,9,comoros,moroni,0.38671875
3,3,87,632603.1326,17238.95117,FALSE,3,uganda,kampala,0.64296875
3,3,88,651421.3589,1234.203875,TRUE,1,lesotho,maseru,0.758984375
3,3,89,654940.116,1003.488166,FALSE,6,guinea,conakry,0.4765625
3,3,90,657230.9773,inf,FALSE,3,uganda,kampala,0.664453125
3,3,91,660967.653,1571.901917,TRUE,7,cape verde,praia,0.299609375
3,3,92,666504.6558,2989.131333,FALSE,8,niger,niamey,0.400390625
3,3,93,672366.5447,2280.633084,FALSE,3,uganda,kampala,0.6765625
3,3,94,675852.2236,858.327,FALSE,2,kenya,nairobi,0.544140625
3,3,95,679345.6894,1018.051125,TRUE,1,lesotho,maseru,0.709375
3,3,96,683479.045,1998.233792,FALSE,4,nigeria,abuja,0.569140625
3,3,97,688962.17,14267.88713,FALSE,3,uganda,kampala,0.688671875
3,3,98,704746.8902,3292.239083,FALSE,2,kenya,nairobi,0.55625
3,3,99,710210.7338,1270.801542,FALSE,3,uganda,kampala,0.73828125
3,3,100,712619.7143,2128.55175,FALSE,4,nigeria,abuja,0.58046875
3,3,101,717531.192,4334.965125,FALSE,3,uganda,kampala,0.756640625
3,3,102,725290.6822,1183.022959,FALSE,6,guinea,conakry,0.487109375
3,3,103,727617.5016,1675.537625,FALSE,3,uganda,kampala,0.76875
3,3,104,730528.1677,1043.51175,FALSE,9,comoros,moroni,0.387890625
3,3,105,732629.767,1422.271417,FALSE,3,uganda,kampala,0.769921875
3,3,106,736854.4954,901.897209,TRUE,1,lesotho,maseru,0.659765625
3,3,107,740045.2378,1054.504417,FALSE,3,uganda,kampala,0.81953125
3,3,108,742231.1595,1800.762334,FALSE,2,kenya,nairobi,0.558203125
3,3,109,745397.8251,1235.637917,FALSE,3,uganda,kampala,0.869140625
3,3,110,747560.4455,1542.082458,TRUE,4,nigeria,abuja,0.580078125
3,3,111,750802.7825,1417.965125,FALSE,3,uganda,kampala,0.91875
3,3,112,755216.3708,2022.387875,FALSE,8,niger,niamey,0.40078125
3,3,113,761658.3792,1328.273667,FALSE,3,uganda,kampala,0.968359375
3,3,114,766045.5792,1540.060208,TRUE,0,djibouti,djibouti,0.20078125
3,3,115,770049.2142,1326.884084,FALSE,3,uganda,kampala,0.99609375
3,3,116,775707.3009,4328.547917,FALSE,6,guinea,conakry,0.4875
3,3,117,781259.2898,2031.101042,FALSE,3,uganda,kampala,0.971484375
3,3,118,784496.7207,742.690542,FALSE,2,kenya,nairobi,0.56484375
3,3,119,786059.7529,493.272208,TRUE,3,uganda,kampala,0.96875
3,3,120,788726.2184,inf,TRUE,4,nigeria,abuja,0.58203125
3,3,121,794576.8428,1724.664167,TRUE,3,uganda,kampala,0.964453125
3,3,122,798249.8238,1061.487209,TRUE,5,south africa,cape town,0.20078125
3,3,123,801381.4253,1523.868625,TRUE,3,uganda,kampala,0.91484375
3,3,124,805375.5096,2643.417291,TRUE,1,lesotho,maseru,0.61015625
3,3,125,810187.4669,993.696375,FALSE,3,uganda,kampala,0.915234375
3,3,126,816012.1785,inf,FALSE,2,kenya,nairobi,0.614453125
3,3,127,831073.0283,inf,FALSE,3,uganda,kampala,0.91640625
3,3,128,834481.8615,4841.420959,FALSE,2,kenya,nairobi,0.62265625
3,3,129,840420.1877,1155.486875,TRUE,3,uganda,kampala,0.866796875
3,3,130,843563.0861,2845.054208,TRUE,4,nigeria,abuja,0.581640625
3,3,131,847789.502,1534.596875,FALSE,3,uganda,kampala,0.91640625
3,3,132,852041.1964,988.028958,FALSE,9,comoros,moroni,0.4125
3,3,133,855449.5508,2050.562583,TRUE,3,uganda,kampala,0.916015625
3,3,134,859248.7266,1028.814291,FALSE,2,kenya,nairobi,0.647265625
3,3,135,861584.5342,inf,TRUE,3,uganda,kampala,0.9171875
3,3,136,870123.3784,1112.456625,FALSE,6,guinea,conakry,0.512109375
3,3,137,872301.8905,1433.721041,TRUE,3,uganda,kampala,0.867578125
3,3,138,875531.064,inf,TRUE,2,kenya,nairobi,0.65078125
3,3,139,879804.7782,944.497541,TRUE,3,uganda,kampala,0.83515625
3,3,140,882578.9652,708.915417,FALSE,4,nigeria,abuja,0.6296875
3,3,141,887559.6204,inf,FALSE,8,niger,niamey,0.444140625
3,3,142,897567.9133,2673.419375,TRUE,4,nigeria,abuja,0.633984375
3,3,143,901810.3083,1700.83875,FALSE,3,uganda,kampala,0.835546875
3,3,144,906273.2008,643.428833,TRUE,2,kenya,nairobi,0.650390625
3,3,145,909241.9141,579.3235,TRUE,3,uganda,kampala,0.7859375
3,3,146,911918.5181,3157.240833,FALSE,6,guinea,conakry,0.53046875
3,3,147,916342.2466,3184.751166,TRUE,4,nigeria,abuja,0.64296875
3,3,148,921043.8562,2930.201667,TRUE,2,kenya,nairobi,0.7
3,3,149,926772.4483,899.324208,FALSE,9,comoros,moroni,0.421484375
3,3,150,928821.7664,1517.590292,TRUE,2,kenya,nairobi,0.699609375
3,3,151,931952.4872,inf,FALSE,8,niger,niamey,0.4546875
3,3,152,946829.4753,inf,TRUE,2,kenya,nairobi,0.70078125
3,3,153,952698.7553,4171.374167,TRUE,4,nigeria,abuja,0.648828125
3,3,154,958489.9344,inf,FALSE,3,uganda,kampala,0.835546875
3,3,155,967227.5777,inf,TRUE,2,kenya,nairobi,0.701171875
3,3,156,971068.7751,inf,TRUE,3,uganda,kampala,0.8421875
3,3,157,977661.2438,3756.38525,FALSE,6,guinea,conakry,0.547265625
3,3,158,982416.4823,inf,FALSE,3,uganda,kampala,0.887890625
3,3,159,992394.4311,2712.710458,TRUE,4,nigeria,abuja,0.6484375
3,3,160,996566.9605,1578.541875,TRUE,3,uganda,kampala,0.8390625
3,3,161,1000423.386,1077.750792,TRUE,2,kenya,nairobi,0.70078125
3,3,162,1003094.723,1430.692917,TRUE,3,uganda,kampala,0.838671875
3,3,163,1006266.386,inf,FALSE,1,lesotho,maseru,0.634765625
3,3,164,1015589.983,inf,FALSE,3,uganda,kampala,0.88828125
3,3,165,1022165.639,1044.970625,TRUE,2,kenya,nairobi,0.651171875
3,3,166,1027589.134,inf,TRUE,3,uganda,kampala,0.919921875
3,3,167,1050809.01,3230.054083,TRUE,4,nigeria,abuja,0.637109375
3,3,168,1055478.247,inf,TRUE,3,uganda,kampala,0.8765625
3,3,169,1069529.155,4224.320458,FALSE,6,guinea,conakry,0.559375
3,3,170,1075891.815,inf,FALSE,3,uganda,kampala,0.881640625
3,3,171,1086182.642,8340.99175,FALSE,1,lesotho,maseru,0.65234375
3,3,172,1098738.237,3016.365708,FALSE,3,uganda,kampala,0.88125
3,3,173,1104310.618,1252.771375,FALSE,8,niger,niamey,0.460546875
3,3,174,1115425.808,2875.112541,FALSE,3,uganda,kampala,0.881640625
3,3,175,1120682.981,inf,TRUE,4,nigeria,abuja,0.6546875
3,3,176,1126973.303,2658.505458,FALSE,3,uganda,kampala,0.88203125
3,3,177,1132530.447,2076.38925,FALSE,2,kenya,nairobi,0.66953125
3,3,178,1135688.698,3404.839667,FALSE,3,uganda,kampala,0.887890625
3,3,179,1142442.248,1640.510625,FALSE,6,guinea,conakry,0.569921875
3,3,180,1145113.124,1669.801084,TRUE,3,uganda,kampala,0.8875
3,3,181,1148402.448,6530.133291,FALSE,1,lesotho,maseru,0.652734375
3,3,182,1156718.187,inf,FALSE,3,uganda,kampala,0.924609375
3,3,183,1161477.892,2532.353417,TRUE,4,nigeria,abuja,0.637109375
3,3,184,1165345.304,1412.273083,TRUE,3,uganda,kampala,0.92421875
3,3,185,1168311.236,1534.411583,TRUE,2,kenya,nairobi,0.619921875
3,3,186,1174734.959,inf,TRUE,3,uganda,kampala,0.966796875
3,3,187,1183758.847,1007.609042,FALSE,9,comoros,moroni,0.43359375
3,3,188,1185857.813,1266.18925,TRUE,3,uganda,kampala,0.9171875
3,3,189,1188844.813,1376.088041,FALSE,6,guinea,conakry,0.57265625
3,3,190,1191256.592,1032.725834,TRUE,3,uganda,kampala,0.867578125
3,3,191,1195045.1,inf,TRUE,1,lesotho,maseru,0.6546875
3,3,192,1200943.729,1502.583583,FALSE,8,niger,niamey,0.471875
3,3,193,1210397.906,1052.330708,FALSE,4,nigeria,abuja,0.6375
3,3,194,1215169.021,inf,FALSE,3,uganda,kampala,0.86796875
3,3,195,1224362.366,2648.8685,FALSE,1,lesotho,maseru,0.660546875
3,3,196,1227904.601,inf,TRUE,3,uganda,kampala,0.917578125
3,3,197,1235283.839,1957.9825,FALSE,6,guinea,conakry,0.573046875
4,1,1,173172.3014,10895.2609,TRUE,0,st. helena,jamestown,0.3
4,1,2,201174.5006,2132.3923,TRUE,0,st. helena,jamestown,0.3
4,1,3,208578.97,21892.7337,TRUE,1,ivory coast,yamoussoukro,0.3
4,1,4,275914.0753,3829.2735,TRUE,1,ivory coast,yamoussoukro,0.3
4,1,5,286213.9932,2005.2955,TRUE,0,st. helena,jamestown,0.250390625
4,1,6,293480.4831,47891.2438,TRUE,2,uganda,kampala,0.3
4,1,7,356000.2448,2771.727,TRUE,1,ivory coast,yamoussoukro,0.300390625
4,1,8,363664.637,1419.3374,TRUE,2,uganda,kampala,0.3
4,1,9,370681.7744,40270.0629,TRUE,3,swaziland,mbabane,0.3
4,1,10,445301.6395,3970.0054,TRUE,2,uganda,kampala,0.300390625
4,1,11,453949.4738,1254.486,TRUE,3,swaziland,mbabane,0.3
4,1,12,458482.4602,38179.902,TRUE,4,rwanda,kigali,0.3
4,1,13,503134.4695,2597.2881,FALSE,1,ivory coast,yamoussoukro,0.3078125
4,1,14,510333.6278,3154.2131,TRUE,4,rwanda,kigali,0.3
4,1,15,517616.493,1847.0377,TRUE,3,swaziland,mbabane,0.250390625
4,1,16,522700.3057,18775.2082,TRUE,5,congo,brazzaville,0.3
4,1,17,553767.5863,36395.6965,TRUE,6,central african republic,bangui,0.3
4,1,18,596352.4319,2443.0356,TRUE,5,congo,brazzaville,0.3
4,1,19,602318.5597,5112.8301,TRUE,6,central african republic,bangui,0.3
4,1,20,610868.7982,1542.6258,TRUE,4,rwanda,kigali,0.262109375
4,1,21,615451.515,1680.2049,TRUE,2,uganda,kampala,0.25078125
4,1,22,619752.1656,3955.5421,TRUE,7,south africa,cape town,0.3
4,1,23,631202.285,20245.2245,TRUE,8,malawi,lilongwe,0.3
4,1,24,656953.5502,inf,TRUE,7,south africa,cape town,0.3
4,1,25,669903.1107,9159.6191,FALSE,8,malawi,lilongwe,0.3
4,1,26,682636.1361,6490.3629,TRUE,5,congo,brazzaville,0.300390625
4,1,27,693202.6405,6808.9289,FALSE,6,central african republic,bangui,0.325390625
4,1,28,704036.1602,5703.4031,FALSE,1,ivory coast,yamoussoukro,0.311328125
4,1,29,721037.3377,5430.0642,TRUE,7,south africa,cape town,0.347265625
4,1,30,734587.4646,4535.7791,FALSE,8,malawi,lilongwe,0.344140625
4,1,31,763987.1644,7796.3472,TRUE,0,st. helena,jamestown,0.25078125
4,1,32,775487.5451,1716.0909,TRUE,7,south africa,cape town,0.34609375
4,1,33,780720.9522,3282.7375,TRUE,6,central african republic,bangui,0.375
4,1,34,789321.6896,1889.7644,TRUE,8,malawi,lilongwe,0.3421875
4,1,35,798321.0184,10098.5185,FALSE,9,sao tome and principe,sao tome,0.3
4,1,36,813488.3013,8963.0789,TRUE,5,congo,brazzaville,0.35
4,1,37,827571.2887,2099.9251,TRUE,9,sao tome and principe,sao tome,0.3
4,1,38,833488.2066,5339.2434,TRUE,6,central african republic,bangui,0.376171875
4,1,39,842205.0047,5994.7426,TRUE,10,senegal,dakar,0.3
4,1,40,852188.9402,12730.6377,TRUE,11,comoros,moroni,0.3
4,1,41,875138.7408,7721.0137,TRUE,10,senegal,dakar,0.3
4,1,42,885122.2652,1208.877,TRUE,11,comoros,moroni,0.3
4,1,43,890405.61,2345.6513,TRUE,5,congo,brazzaville,0.337890625
4,1,44,897522.7315,1556.259,TRUE,9,sao tome and principe,sao tome,0.250390625
4,1,45,903122.737,6564.2912,TRUE,7,south africa,cape town,0.395703125
4,1,46,913939.8319,13555.81,FALSE,8,malawi,lilongwe,0.391796875
4,1,47,928589.8885,3897.5644,TRUE,6,central african republic,bangui,0.37890625
4,1,48,936608.7541,1522.5686,TRUE,10,senegal,dakar,0.299609375
4,1,49,941139.8292,1507.8524,TRUE,7,south africa,cape town,0.34609375
4,1,50,947057.2551,5314.16,FALSE,11,comoros,moroni,0.300390625
4,1,51,955240.209,4634.9968,TRUE,8,malawi,lilongwe,0.40234375
4,1,52,963573.8788,5105.6322,TRUE,4,rwanda,kigali,0.26640625
4,1,53,971707.4047,2003.9521,TRUE,1,ivory coast,yamoussoukro,0.3078125
4,1,54,979106.963,3336.6656,FALSE,3,swaziland,mbabane,0.25078125
4,1,55,985790.6148,5952.51,TRUE,12,egypt,cairo,0.3
4,1,56,995757.3427,1934.0611,TRUE,13,morocco,rabat,0.3
4,1,57,1004574.315,1328.9792,TRUE,12,egypt,cairo,0.3
4,1,58,1008274.331,2005.4182,TRUE,13,morocco,rabat,0.3
4,1,59,1012841.22,27153.8773,TRUE,14,mali,bamako,0.3
4,1,60,1045058.508,2032.4735,TRUE,8,malawi,lilongwe,0.401953125
4,1,61,1054626.307,2089.3918,TRUE,14,mali,bamako,0.3
4,1,62,1059108.743,3210.6869,TRUE,6,central african republic,bangui,0.416015625
4,1,63,1065525.549,1266.2047,TRUE,12,egypt,cairo,0.250390625
4,1,64,1069324.988,1202.5391,TRUE,13,morocco,rabat,0.250390625
4,1,65,1073075.09,2688.1148,TRUE,5,congo,brazzaville,0.35
4,1,66,1079326.801,2664.7845,TRUE,10,senegal,dakar,0.31171875
4,1,67,1084591.932,5823.4684,FALSE,11,comoros,moroni,0.35
4,1,68,1092975.112,18696.2323,TRUE,15,lesotho,maseru,0.3
4,1,69,1115292.217,1667.2271,FALSE,6,central african republic,bangui,0.459375
4,1,70,1120461.029,1753.9947,TRUE,15,lesotho,maseru,0.3
4,1,71,1124842.516,15340.4644,FALSE,14,mali,bamako,0.300390625
4,1,72,1141259.33,8215.8673,TRUE,6,central african republic,bangui,0.465234375
4,1,73,1152477.038,2758.5475,TRUE,8,malawi,lilongwe,0.41640625
4,1,74,1159209.609,2129.6173,FALSE,11,comoros,moroni,0.387890625
4,1,75,1164612.158,14543.4213,TRUE,16,ethiopia,addis ababa,0.3
4,1,76,1192193.993,3400.6555,TRUE,15,lesotho,maseru,0.349609375
4,1,77,1199243.916,1415.2862,FALSE,16,ethiopia,addis ababa,0.3
4,1,78,1205260.105,3094.9826,TRUE,6,central african republic,bangui,0.465625
4,1,79,1211410.9,2252.2298,TRUE,11,comoros,moroni,0.3875
4,1,80,1217160.794,1918.5624,TRUE,7,south africa,cape town,0.296484375
4,1,81,1222194.676,1576.8747,TRUE,8,malawi,lilongwe,0.416015625
4,1,82,1227327.39,1596.3858,TRUE,5,congo,brazzaville,0.349609375
4,1,83,1233827.864,2263.1136,FALSE,15,lesotho,maseru,0.36875
4,1,84,1245777.499,7889.4149,TRUE,10,senegal,dakar,0.336328125
4,1,85,1256295.155,2016.031,TRUE,16,ethiopia,addis ababa,0.299609375
4,1,86,1264511.363,1619.9977,TRUE,6,central african republic,bangui,0.465234375
4,1,87,1269777.881,14405.1482,FALSE,14,mali,bamako,0.35
4,1,88,1285262.542,6052.533,TRUE,9,sao tome and principe,sao tome,0.25078125
4,1,89,1295078.404,3528.0979,TRUE,15,lesotho,maseru,0.369921875
4,1,90,1301762.172,1660.8704,TRUE,11,comoros,moroni,0.387109375
4,1,91,1306597.486,13833.7746,TRUE,17,cape verde,praia,0.3
4,1,92,1325495.799,15283.4547,FALSE,14,mali,bamako,0.387890625
4,1,93,1341879.492,3055.6326,TRUE,17,cape verde,praia,0.3
4,1,94,1347979.169,4863.8859,TRUE,6,central african republic,bangui,0.503125
4,1,95,1355962.789,1420.2773,TRUE,8,malawi,lilongwe,0.36640625
4,1,96,1361062.632,1516.1626,TRUE,0,st. helena,jamestown,0.225390625
4,1,97,1366530.517,1920.6437,TRUE,6,central african republic,bangui,0.500390625
4,1,98,1371879.558,1704.0039,TRUE,10,senegal,dakar,0.31171875
5,2,1,33101.4336,1507.3516,6,0,comoros,moroni,0.3
5,2,2,36543.6551,inf,6,0,comoros,moroni,0.3
5,2,3,40095.7904,1263.0826,9,1,somalia,mogadishu,0.3
5,2,4,44946.4782,2178.8525,9,1,somalia,mogadishu,0.3
5,2,5,49698.3083,3517.6246,7,2,swaziland,mbabane,0.3
5,2,6,56886.6923,1399.1867,6,3,central african republic,bangui,0.3
5,2,7,60019.4658,inf,6,2,swaziland,mbabane,0.3
5,2,8,67519.6521,inf,0,3,central african republic,bangui,0.3
5,2,9,77335.1098,2333.0038,0,0,comoros,moroni,0.349609375
5,2,10,80740.8574,1238.0498,6,4,zimbabwe,harare,0.3
5,2,11,84150.683,2377.7398,8,5,sao tome and principe,sao tome,0.3
5,2,12,89794.1004,1211.394,1,4,zimbabwe,harare,0.3
5,2,13,94209.5975,1319.9719,8,5,sao tome and principe,sao tome,0.3
5,2,14,97820.5899,1279.1192,9,1,somalia,mogadishu,0.250390625
5,2,15,102396.7839,1151.2994,9,6,mayotte,mamoudzou,0.3
5,2,16,108711.5919,3803.9697,3,2,swaziland,mbabane,0.349609375
5,2,17,114980.6674,10185.2248,1,6,mayotte,mamoudzou,0.3
5,2,18,128532.5288,1335.6967,6,0,comoros,moroni,0.34921875
5,2,19,133126.9122,4509.4994,2,3,central african republic,bangui,0.349609375
5,2,20,140232.2098,1023.3305,1,4,zimbabwe,harare,0.250390625
5,2,21,143970.236,855.3598,8,5,sao tome and principe,sao tome,0.250390625
5,2,22,146811.8006,1063.033,10,7,gabon,libreville,0.3
5,2,23,150653.2535,inf,6,2,swaziland,mbabane,0.39921875
5,2,24,161453.8211,6043.9717,8,7,gabon,libreville,0.3
5,2,25,170698.4324,1905.6665,1,6,mayotte,mamoudzou,0.250390625
5,2,26,174804.7044,1410.7262,1,3,central african republic,bangui,0.34921875
5,2,27,178138.7759,1669.2382,9,8,st. helena,jamestown,0.3
5,2,28,181914.4072,1215.5098,3,2,swaziland,mbabane,0.398828125
5,2,29,185787.195,2429.5007,2,8,st. helena,jamestown,0.3
5,2,30,190166.7739,1757.8479,6,9,angola,luanda,0.3
5,2,31,194091.1519,1529.8803,6,10,equatorial guinea,malabo,0.3
5,2,32,197528.2407,3957.0321,0,9,angola,luanda,0.3
5,2,33,203702.6631,inf,0,10,equatorial guinea,malabo,0.3
5,2,34,210840.2115,1131.1823,6,0,comoros,moroni,0.299609375
5,2,35,213948.6213,2102.3895,1,7,gabon,libreville,0.275390625
5,2,36,217749.3217,inf,6,11,guinea-bissau,bissau,0.3
5,2,37,221927.8342,1207.1021,7,12,kenya,nairobi,0.3
5,2,38,226841.7487,3494.4194,1,11,guinea-bissau,bissau,0.3
5,2,39,232161.7187,1059.2774,7,12,kenya,nairobi,0.3
5,2,40,235187.6588,1184.995,9,8,st. helena,jamestown,0.250390625
5,2,41,238485.4526,951.5881,5,13,nigeria,abuja,0.3
5,2,42,241584.5854,1340.254,10,14,mauritania,nouakchott,0.3
5,2,43,248200.6006,inf,1,13,nigeria,abuja,0.3
5,2,44,253294.4538,4946.8612,10,14,mauritania,nouakchott,0.3
5,2,45,261864.9015,2326.039,0,9,angola,luanda,0.349609375
5,2,46,266179.4839,1609.3425,3,2,swaziland,mbabane,0.3984375
5,2,47,269736.5458,984.4,2,10,equatorial guinea,malabo,0.250390625
5,2,48,272488.0179,964.0426,1,3,central african republic,bangui,0.299609375
5,2,49,275434.7514,927.2369,0,11,guinea-bissau,bissau,0.349609375
5,2,50,278195.4201,1232.0189,10,15,madagascar,antananarivo,0.3
5,2,51,283585.1388,1256.5797,7,12,kenya,nairobi,0.250390625
5,2,52,286924.8217,inf,2,15,madagascar,antananarivo,0.3
5,2,53,296211.2237,4063.2819,1,13,nigeria,abuja,0.349609375
5,2,54,302023.443,847.3273,0,9,angola,luanda,0.39921875
5,2,55,304672.0308,3173.7234,0,14,mauritania,nouakchott,0.349609375
5,2,56,309463.9092,1418.5395,5,16,senegal,dakar,0.3
5,2,57,312619.5561,1356.4189,6,17,gambia,banjul,0.3
5,2,58,317145.0533,714.1069,5,16,senegal,dakar,0.3
5,2,59,319450.0484,770.8624,6,17,gambia,banjul,0.3
5,2,60,322231.2858,1951.2048,0,11,guinea-bissau,bissau,0.39921875
5,2,61,325896.0096,1782.7239,6,18,mali,bamako,0.3
5,2,62,330805.0257,2486.3202,6,9,angola,luanda,0.424609375
5,2,63,334977.3719,1558.1032,1,18,mali,bamako,0.3
5,2,64,338221.4612,3426.148,6,15,madagascar,antananarivo,0.349609375
5,2,65,343936.3187,6315.8418,1,13,nigeria,abuja,0.39921875
5,2,66,351993.1479,1150.8063,1,2,swaziland,mbabane,0.348828125
5,2,67,354881.9078,inf,0,14,mauritania,nouakchott,0.39921875
5,2,68,359989.4256,2380.422,0,11,guinea-bissau,bissau,0.448828125
5,2,69,364136.7363,1524.6661,5,16,senegal,dakar,0.250390625
5,2,70,367291.2695,6471.4043,6,17,gambia,banjul,0.349609375
5,2,71,375978.4671,3249.6392,6,9,angola,luanda,0.44921875
5,2,72,381027.1423,2774.7,2,13,nigeria,abuja,0.437109375
5,2,73,386500.9384,1308.4671,1,11,guinea-bissau,bissau,0.4484375
5,2,74,393028.1069,2067.4645,0,15,madagascar,antananarivo,0.39921875
5,2,75,396168.0422,2561.1428,1,14,mauritania,nouakchott,0.430859375
5,2,76,400922.7032,inf,0,18,mali,bamako,0.349609375
5,2,77,408044.1418,inf,9,1,somalia,mogadishu,0.3
5,2,78,422780.8816,inf,1,13,nigeria,abuja,0.46171875
5,2,79,431144.9302,961.2708,6,9,angola,luanda,0.420703125
5,2,80,435522.3782,4799.6146,1,17,gambia,banjul,0.39921875
5,2,81,443488.9759,2113.8469,8,15,madagascar,antananarivo,0.398828125
5,2,82,448524.5365,8096.5708,0,14,mauritania,nouakchott,0.45546875
5,2,83,458452.8571,inf,1,11,guinea-bissau,bissau,0.465234375
5,2,84,473540.9883,1296.8981,1,13,nigeria,abuja,0.437109375
5,2,85,477326.6532,8056.6575,2,18,mali,bamako,0.39921875
5,2,86,487471.7363,inf,2,17,gambia,banjul,0.433203125
5,2,87,499391.8698,1193.2268,1,14,mauritania,nouakchott,0.430859375
5,2,88,503260.8332,2521.1199,1,11,guinea-bissau,bissau,0.46484375
5,2,89,507626.1055,1637.1286,2,7,gabon,libreville,0.24609375
5,2,90,511134.0942,5905.999,2,18,mali,bamako,0.417578125
5,2,91,519568.1662,inf,8,15,madagascar,antananarivo,0.4484375
5,2,92,527142.896,4651.041,2,17,gambia,banjul,0.43359375
5,2,93,536124.4884,1003.8524,6,9,angola,luanda,0.4203125
5,2,94,538819.3468,8951.0808,0,4,zimbabwe,harare,0.3
5,2,95,551288.9496,2497.9337,10,15,madagascar,antananarivo,0.444921875
5,2,96,557338.6491,1381.477,9,1,somalia,mogadishu,0.250390625
5,2,97,561278.9093,inf,1,13,nigeria,abuja,0.4640625
5,2,98,584815.0213,2485.7668,2,18,mali,bamako,0.40546875
5,2,99,590096.0691,1413.6399,6,11,guinea-bissau,bissau,0.456640625
5,2,100,593355.0691,5911.6429,6,17,gambia,banjul,0.470703125
5,2,101,601170.6247,inf,0,14,mauritania,nouakchott,0.459375
5,2,102,612695.3011,20363.8144,1,13,nigeria,abuja,0.513671875
5,2,103,635400.723,960.1712,6,17,gambia,banjul,0.4703125
5,2,104,638389.3137,1652.3299,5,13,nigeria,abuja,0.51328125
5,2,105,641683.7816,2542.004,9,15,madagascar,antananarivo,0.44453125
5,2,106,648837.2378,1142.6775,8,5,sao tome and principe,sao tome,0.20078125
5,2,107,652051.4909,14096.9592,0,14,mauritania,nouakchott,0.501953125
5,2,108,667221.6282,1302.8549,5,9,angola,luanda,0.370703125
5,2,109,670301.4765,4286.5611,1,6,mayotte,mamoudzou,0.3
5,2,110,675965.1275,921.6182,6,11,guinea-bissau,bissau,0.40703125
5,2,111,678670.2225,2197.9217,10,14,mauritania,nouakchott,0.5015625
5,2,112,683349.8027,5104.1018,1,13,nigeria,abuja,0.513671875
5,2,113,690273.5682,2039.5897,9,8,st. helena,jamestown,0.20078125
5,2,114,694657.7936,3499.0729,2,18,mali,bamako,0.417578125
5,2,115,700032.7366,29814.074,1,17,gambia,banjul,0.513671875
5,2,116,732051.2223,5459.8947,0,4,zimbabwe,harare,0.314453125
5,2,117,738585.3624,2480.6995,6,17,gambia,banjul,0.51328125
5,2,118,742882.5032,2063.9037,1,14,mauritania,nouakchott,0.476953125
5,2,119,746866.8156,2717.7706,10,15,madagascar,antananarivo,0.434765625
5,2,120,753489.2487,inf,1,13,nigeria,abuja,0.53828125
5,2,121,766727.076,1335.7436,4,0,comoros,moroni,0.25
5,2,122,769856.635,inf,0,10,equatorial guinea,malabo,0.3
5,2,123,779087.2208,6445.7331,5,13,nigeria,abuja,0.572265625
5,2,124,788205.1494,2787.3334,6,17,gambia,banjul,0.513671875
5,2,125,793979.4712,4735.2246,0,12,kenya,nairobi,0.3
5,2,126,801077.2131,6527.4464,1,13,nigeria,abuja,0.590625
5,2,127,809507.9346,981.0882,6,18,mali,bamako,0.4171875
5,2,128,812272.2911,1691.8215,2,2,swaziland,mbabane,0.29921875
5,2,129,818183.5029,1612.3914,2,6,mayotte,mamoudzou,0.299609375
5,2,130,822599.8029,16142.6351,1,13,nigeria,abuja,0.603515625
5,2,131,840606.0969,1195.8053,6,17,gambia,banjul,0.4828125
5,2,132,843689.4293,1394.1551,5,13,nigeria,abuja,0.603125
5,2,133,847202.1553,1008.3461,5,16,senegal,dakar,0.20078125
5,2,134,849825.0468,3628.6621,3,14,mauritania,nouakchott,0.50234375
5,2,135,855462.2289,4620.1856,1,3,central african republic,bangui,0.34921875
5,2,136,863584.4706,2787.8519,12,15,madagascar,antananarivo,0.43984375
5,2,137,870853.2302,2190.1237,5,13,nigeria,abuja,0.602734375
5,2,138,874726.807,inf,2,10,equatorial guinea,malabo,0.304296875
5,2,139,883053.548,11534.9642,3,14,mauritania,nouakchott,0.526953125
5,2,140,896417.7691,1633.914,5,13,nigeria,abuja,0.56953125
5,2,141,899611.3239,inf,7,12,kenya,nairobi,0.301953125
5,2,142,905021.5746,1608.9384,3,18,mali,bamako,0.391796875
5,2,143,909531.9022,4492.6998,10,14,mauritania,nouakchott,0.5328125
5,2,144,917132.1521,inf,3,3,central african republic,bangui,0.350390625
5,2,145,927970.7871,3955.3996,1,4,zimbabwe,harare,0.31484375
5,2,146,935493.02,2506.6758,6,17,gambia,banjul,0.482421875
5,2,147,939867.8301,1357.3244,6,11,guinea-bissau,bissau,0.357421875
5,2,148,942961.565,1964.2215,12,15,madagascar,antananarivo,0.434765625
5,2,149,948497.2495,4901.587,10,14,mauritania,nouakchott,0.582421875
5,2,150,956801.1039,4111.203,1,13,nigeria,abuja,0.569921875
5,2,151,962850.6525,4569.2237,10,14,mauritania,nouakchott,0.5953125
5,2,152,969721.4227,1628.7022,6,19,zambia,lusaka,0.3
5,2,153,974273.5007,1569.0706,9,14,mauritania,nouakchott,0.594921875
5,2,154,978319.0003,2043.8317,6,19,zambia,lusaka,0.3
5,2,155,982905.6989,2096.0639,1,9,angola,luanda,0.32109375
5,2,156,986897.1991,1566.5201,7,20,cameroon,yaounde,0.3
5,2,157,990505.4446,inf,1,13,nigeria,abuja,0.5703125
5,2,158,995517.2752,5472.1297,0,20,cameroon,yaounde,0.3
5,2,159,1002062.098,1929.8454,10,14,mauritania,nouakchott,0.59453125
5,2,160,1006995.247,2684.0407,6,17,gambia,banjul,0.4828125
5,2,161,1011562.837,1921.3477,11,21,burkina faso,ouagadougou,0.3
5,2,162,1018797.941,1217.1192,4,22,togo,lome,0.3
5,2,163,1021779.178,3246.4472,2,21,burkina faso,ouagadougou,0.3
5,2,164,1026527.459,1777.9051,3,22,togo,lome,0.3
5,2,165,1030236.414,1204.3859,10,14,mauritania,nouakchott,0.544921875
5,2,166,1033831.494,2653.7238,2,19,zambia,lusaka,0.321484375
5,2,167,1040106.759,1948.2911,5,13,nigeria,abuja,0.569921875
5,2,168,1043766.693,1570.2447,2,20,cameroon,yaounde,0.250390625
5,2,169,1047170.847,1273.9813,1,6,mayotte,mamoudzou,0.25
5,2,170,1049931.989,1915.1763,12,15,madagascar,antananarivo,0.42421875
5,2,171,1056477.513,6629.3139,6,3,central african republic,bangui,0.35078125
5,2,172,1065732.975,1849.7546,8,23,namibia,windhoek,0.3
5,2,173,1072211.272,4851.3733,8,21,burkina faso,ouagadougou,0.349609375
5,2,174,1081946.093,1761.8816,8,23,namibia,windhoek,0.3
5,2,175,1085801.737,1025.0997,4,22,togo,lome,0.250390625
5,2,176,1088286.19,8727.5669,5,13,nigeria,abuja,0.61953125
5,2,177,1098840.592,1304.1451,6,17,gambia,banjul,0.479296875
5,2,178,1102733.115,1598.4612,5,13,nigeria,abuja,0.619140625
5,2,179,1106083.815,11902.3127,2,10,equatorial guinea,malabo,0.35390625
5,2,180,1119853.522,9432.7911,0,19,zambia,lusaka,0.321875
5,2,181,1130358.515,1366.2844,5,13,nigeria,abuja,0.56953125
5,2,182,1133298.99,1804.1663,2,21,burkina faso,ouagadougou,0.34921875
5,2,183,1137161.141,1684.141,10,14,mauritania,nouakchott,0.50703125
5,2,184,1141296.021,2900.5971,1,18,mali,bamako,0.3921875
5,2,185,1147691.611,2222.7688,8,23,namibia,windhoek,0.262109375
5,2,186,1152404.086,1314.0514,7,12,kenya,nairobi,0.3015625
5,2,187,1156272.123,23084.0288,3,10,equatorial guinea,malabo,0.366015625
5,2,188,1181934.77,1782.159,1,4,zimbabwe,harare,0.314453125
5,2,189,1185759.068,1568.1417,1,7,gabon,libreville,0.196484375
5,2,190,1188990.545,1054.1783,1,17,gambia,banjul,0.4296875
5,2,191,1193082.364,1852.7371,8,24,djibouti,djibouti,0.3
5,2,192,1197217.725,1130.9323,7,25,liberia,monrovia,0.3
5,2,193,1200534.81,934.7252,8,24,djibouti,djibouti,0.3
5,2,194,1206285.187,558.6446,7,25,liberia,monrovia,0.3
5,2,195,1209847.838,1706.2615,5,13,nigeria,abuja,0.519921875
5,2,196,1213313.174,1855.5355,12,15,madagascar,antananarivo,0.387109375
5,2,197,1218841.646,18103.8591,3,21,burkina faso,ouagadougou,0.398828125
6,2,1,24941.1066,3392.6124,6,0,mali,bamako,0.3
6,2,2,31512.8672,1060.6069,6,0,mali,bamako,0.3
6,2,3,35386.3433,2507.2597,8,1,seychelles,victoria,0.3
6,2,4,40976.1311,653.8098,8,1,seychelles,victoria,0.3
6,2,5,44574.102,2150.1179,6,2,eritrea,asmara,0.3
6,2,6,49137.5518,2913.8755,5,3,ghana,accra,0.3
6,2,7,54797.5983,2207.1897,4,2,eritrea,asmara,0.3
6,2,8,59767.7011,1308.0147,5,3,ghana,accra,0.3
6,2,9,63202.2968,1847.9254,6,4,zambia,lusaka,0.3
6,2,10,69362.7896,5794.406,10,5,mauritania,nouakchott,0.3
6,2,11,84211.4765,6673.4303,5,4,zambia,lusaka,0.3
6,2,12,93471.2304,1500.4811,6,5,mauritania,nouakchott,0.3
6,2,13,103767.2273,6083.6974,4,0,mali,bamako,0.349609375
6,2,14,111600.7456,2927.2073,8,1,seychelles,victoria,0.323046875
6,2,15,117740.8271,1740.7177,6,2,eritrea,asmara,0.250390625
6,2,16,128229.9026,1553.7552,5,3,ghana,accra,0.250390625
6,2,17,131606.6494,6811.5078,6,6,central african republic,bangui,0.3
6,2,18,140485.6324,2179.3967,6,4,zambia,lusaka,0.275390625
6,2,19,145282.8487,inf,6,6,central african republic,bangui,0.3
6,2,20,153322.8217,6411.35,4,0,mali,bamako,0.3890625
6,2,21,161527.9923,3721.0104,8,5,mauritania,nouakchott,0.349609375
6,2,22,183052.8042,3100.5941,8,1,seychelles,victoria,0.3234375
6,2,23,188482.5807,16150.5605,6,0,mali,bamako,0.438671875
6,2,24,207480.1233,1205.4269,6,6,central african republic,bangui,0.250390625
6,2,25,211952.2541,3105.4141,7,5,mauritania,nouakchott,0.39609375
6,2,26,248038.1999,4723.574,6,0,mali,bamako,0.44921875
6,2,27,260385.7972,1096.2602,10,5,mauritania,nouakchott,0.395703125
6,2,28,272142.5725,1713.2211,6,0,mali,bamako,0.448828125
6,2,29,277425.7934,8572.0867,0,7,sierre leone,freetown,0.3
6,2,30,287074.8012,3916.6758,5,8,nigeria,abuja,0.3
6,2,31,296280.4498,1264.072,8,7,sierre leone,freetown,0.3
6,2,32,300510.6061,4270.8654,5,8,nigeria,abuja,0.3
6,2,33,307203.3555,1012.9417,8,1,seychelles,victoria,0.323046875
6,2,34,310468.009,5325.4905,9,9,st. helena,jamestown,0.3
6,2,35,318603.84,8923.2829,0,10,angola,luanda,0.3
6,2,36,328602.5161,1511.2128,9,9,st. helena,jamestown,0.3
6,2,37,334150.7693,4729.3218,6,10,angola,luanda,0.3
6,2,38,341626.3571,929.5673,6,0,mali,bamako,0.4484375
6,2,39,344576.4741,1882.1439,10,5,mauritania,nouakchott,0.34609375
6,2,40,349690.0677,1097.4906,8,7,sierre leone,freetown,0.250390625
6,2,41,354578.27,8656.9097,5,8,nigeria,abuja,0.349609375
6,2,42,365364.2408,14880.0553,4,4,zambia,lusaka,0.325
6,2,43,384374.6562,7243.3327,9,9,st. helena,jamestown,0.349609375
6,2,44,394052.2176,7262.8696,6,10,angola,luanda,0.349609375
6,2,45,403698.9453,11800.5387,5,8,nigeria,abuja,0.39921875
6,2,46,417196.9632,1087.2089,6,0,mali,bamako,0.398828125
6,2,47,420238.6736,2432.6205,8,11,djibouti,djibouti,0.3
6,2,48,425699.4256,16881.836,11,12,madagascar,antananarivo,0.3
6,2,49,453062.6856,4326.5014,8,11,djibouti,djibouti,0.3
6,2,50,461798.9688,2022.5236,12,12,madagascar,antananarivo,0.3
6,2,51,469764.2131,1649.7988,5,8,nigeria,abuja,0.398828125
6,2,52,473233.7343,825.5487,9,9,st. helena,jamestown,0.3
6,2,53,476694.209,3024.0251,6,10,angola,luanda,0.39921875
6,2,54,482176.1132,1696.9487,6,4,zambia,lusaka,0.324609375
6,2,55,494539.3032,inf,2,2,eritrea,asmara,0.3
6,2,56,533546.8158,8096.544,6,10,angola,luanda,0.412109375
6,2,57,543474.1078,2008.545,8,11,djibouti,djibouti,0.250390625
6,2,58,547763.8432,3029.2378,12,12,madagascar,antananarivo,0.324609375
6,2,59,556318.4985,5328.3192,5,8,nigeria,abuja,0.4484375
6,2,60,564453.8436,960.3742,8,1,seychelles,victoria,0.2734375
6,2,61,567649.9936,1179.0791,5,3,ghana,accra,0.20078125
6,2,62,570608.6758,2332.9328,0,6,central african republic,bangui,0.3
6,2,63,575218.6789,8320.8947,5,8,nigeria,abuja,0.459765625
6,2,64,585416.3421,inf,6,10,angola,luanda,0.43671875
6,2,65,592344.7633,1590.8175,6,2,eritrea,asmara,0.274609375
6,2,66,595779.5031,3741.9972,10,5,mauritania,nouakchott,0.395703125
6,2,67,602828.1344,7482.0784,9,13,burundi,bujumbura,0.3
6,2,68,623048.7461,2654.332,5,8,nigeria,abuja,0.465625
6,2,69,627684.1617,1697.415,9,13,burundi,bujumbura,0.3
6,2,70,632850.0125,1215.6769,6,10,angola,luanda,0.411328125
6,2,71,636727.8612,1806.2165,12,12,madagascar,antananarivo,0.275
6,2,72,643412.3813,1604.0761,10,5,mauritania,nouakchott,0.34609375
6,2,73,648512.0447,4431.9306,6,0,mali,bamako,0.39921875
6,2,74,655058.9973,2977.7845,6,4,zambia,lusaka,0.34921875
6,2,75,660273.9488,2342.8315,5,14,cape verde,praia,0.3
6,2,76,671722.0945,1993.5418,5,8,nigeria,abuja,0.465234375
6,2,77,675584.3904,2631.9099,5,14,cape verde,praia,0.3
6,2,78,679866.6688,2172.3553,6,6,central african republic,bangui,0.299609375
6,2,79,683988.3526,1252.9686,9,13,burundi,bujumbura,0.250390625
6,2,80,688131.2492,2244.7191,7,15,kenya,nairobi,0.3
6,2,81,693556.1055,7407.7495,9,16,somalia,mogadishu,0.3
6,2,82,714682.154,3002.1196,7,15,kenya,nairobi,0.3
6,2,83,720026.4312,1613.3578,9,16,somalia,mogadishu,0.3
6,2,84,724590.2994,1273.1794,8,7,sierre leone,freetown,0.20078125
6,2,85,729528.8591,1550.7256,5,8,nigeria,abuja,0.46484375
6,2,86,733319.008,998.4971,5,14,cape verde,praia,0.250390625
6,2,87,736025.2841,930.2289,9,9,st. helena,jamestown,0.250390625
6,2,88,739260.2752,2736.1741,6,10,angola,luanda,0.4296875
6,2,89,743916.5627,5294.9646,5,17,senegal,dakar,0.3
6,2,90,756533.0241,37742.7878,12,18,ivory coast,yamoussoukro,0.3
6,2,91,800827.544,3348.6561,5,17,senegal,dakar,0.3
6,2,92,805828.4498,1839.2305,12,18,ivory coast,yamoussoukro,0.3
6,2,93,811426.8746,inf,7,15,kenya,nairobi,0.349609375
6,2,94,817604.6979,4231.8014,9,16,somalia,mogadishu,0.349609375
6,2,95,825687.7489,3077.0791,5,8,nigeria,abuja,0.470703125
6,2,96,830942.3705,3059.7047,6,4,zambia,lusaka,0.354296875
6,2,97,836535.1779,inf,6,10,angola,luanda,0.467578125
6,2,98,840832.9773,1844.0214,6,0,mali,bamako,0.349609375
6,2,99,844882.1199,21815.6795,6,19,mozambique,maputo,0.3
6,2,100,871914.9641,1386.3804,7,15,kenya,nairobi,0.30390625
6,2,101,875903.7613,3628.6429,6,19,mozambique,maputo,0.3
6,2,102,883039.4767,1185.1928,6,10,angola,luanda,0.43125
6,2,103,885958.0748,2003.6036,9,16,somalia,mogadishu,0.3
6,2,104,890598.1763,1657.3939,4,17,senegal,dakar,0.274609375
6,2,105,893971.3491,2160.9375,12,18,ivory coast,yamoussoukro,0.250390625
6,2,106,900953.6251,2108.6194,5,8,nigeria,abuja,0.42734375
6,2,107,905313.5771,18499.161,6,20,equatorial guinea,malabo,0.3
6,2,108,926097.5891,23421.8344,6,21,zimbabwe,harare,0.3
6,2,109,951583.3489,4395.9715,6,20,equatorial guinea,malabo,0.3
6,2,110,959412.1342,2961.5672,6,21,zimbabwe,harare,0.3
6,2,111,964921.3273,2681.0308,6,19,mozambique,maputo,0.297265625
6,2,112,971899.1257,3204.4375,6,6,central african republic,bangui,0.3234375
6,2,113,977516.049,1151.408,8,11,djibouti,djibouti,0.2234375
6,2,114,981651.0509,5963.4648,6,4,zambia,lusaka,0.35546875
6,2,115,989975.406,30136.1584,6,22,lesotho,maseru,0.3
6,2,116,1023262.532,1554.5335,6,20,equatorial guinea,malabo,0.299609375
6,2,117,1028530.492,1031.081,6,22,lesotho,maseru,0.3
6,2,118,1032319.866,1733.8833,6,21,zimbabwe,harare,0.271484375
6,2,119,1036503.822,1567.8826,6,10,angola,luanda,0.381640625
6,2,120,1040308.231,2395.9105,10,5,mauritania,nouakchott,0.333203125
6,2,121,1045471.768,1882.2751,9,23,south africa,cape town,0.3
6,2,122,1050392.311,4687.4862,6,24,niger,niamey,0.3
6,2,123,1066821.726,1530.9058,9,23,south africa,cape town,0.3
6,2,124,1070600.527,569.7439,5,24,niger,niamey,0.3
6,2,125,1073526.156,1606.2779,9,13,burundi,bujumbura,0.20078125
6,2,126,1077709.341,2091.9611,5,14,cape verde,praia,0.215625
6,2,127,1081657.434,1215.5181,6,22,lesotho,maseru,0.250390625
6,2,128,1085784.103,3006.478,12,12,madagascar,antananarivo,0.299609375
6,2,129,1095352.798,2500.7891,6,19,mozambique,maputo,0.3
6,2,130,1101115.207,2799.5708,8,25,namibia,windhoek,0.3
6,2,131,1111521.388,3519.1835,5,8,nigeria,abuja,0.427734375
6,2,132,1117108.503,2794.3207,8,25,namibia,windhoek,0.3
6,2,133,1123566.87,4008.8012,9,23,south africa,cape town,0.349609375
6,2,134,1130131.941,2144.6409,6,24,niger,niamey,0.262109375
6,2,135,1134570.088,2406.8804,7,15,kenya,nairobi,0.298046875
6,2,136,1141956.739,21940.1784,6,6,central african republic,bangui,0.323828125
6,2,137,1166328.179,3747.4863,5,17,senegal,dakar,0.2765625
6,2,138,1171735.492,1918.6515,6,20,equatorial guinea,malabo,0.25
6,2,139,1176533.957,1970.7561,9,23,south africa,cape town,0.3
6,2,140,1181136.064,3410.875,8,25,namibia,windhoek,0.349609375
6,2,141,1186937.619,4270.3716,9,16,somalia,mogadishu,0.349609375
6,2,142,1194211.687,5857.7842,6,2,eritrea,asmara,0.31796875
6,2,143,1202045.675,1678.6406,6,4,zambia,lusaka,0.355078125
6,2,144,1206260.984,3940.6766,5,26,morocco,rabat,0.3
6,2,145,1218165.979,27308.581,8,27,botswana,gaborone,0.3
7,3,1,30811.50788,1999.428916,FALSE,0,gabon,libreville,0.3
7,3,2,37273.83375,851.202375,TRUE,0,gabon,libreville,0.3
7,3,3,40426.44733,3780.515958,FALSE,1,eritrea,asmara,0.3
7,3,4,46002.56204,899.731292,TRUE,1,eritrea,asmara,0.3
7,3,5,48761.56892,3256.008042,TRUE,2,st. helena,jamestown,0.3
7,3,6,54136.43408,1372.756625,TRUE,3,burkina faso,ouagadougou,0.3
7,3,7,61196.66604,1675.434875,FALSE,2,st. helena,jamestown,0.3
7,3,8,68549.88675,1585.79375,FALSE,3,burkina faso,ouagadougou,0.3
7,3,9,76518.24792,2328.681042,TRUE,4,burundi,bujumbura,0.3
7,3,10,83849.6325,inf,FALSE,0,gabon,libreville,0.349609375
7,3,11,96030.09183,2836.021083,FALSE,4,burundi,bujumbura,0.3
7,3,12,102850.73,1685.145333,TRUE,1,eritrea,asmara,0.250390625
7,3,13,107079.2153,1911.447666,TRUE,5,libya,tripoli,0.3
7,3,14,111098.2652,2504.659625,FALSE,2,st. helena,jamestown,0.349609375
7,3,15,115781.921,2716.52275,TRUE,5,libya,tripoli,0.3
7,3,16,120191.7244,1358.59825,TRUE,3,burkina faso,ouagadougou,0.250390625
7,3,17,126864.6599,5099.132083,FALSE,0,gabon,libreville,0.39921875
7,3,18,136463.3388,1410.975708,FALSE,6,south africa,cape town,0.3
7,3,19,139913.5042,1485.81225,TRUE,7,ghana,accra,0.3
7,3,20,143063.4993,1722.573375,TRUE,6,south africa,cape town,0.3
7,3,21,146411.8397,5212.428334,FALSE,7,ghana,accra,0.3
7,3,22,153642.7715,2790.4085,FALSE,4,burundi,bujumbura,0.349609375
7,3,23,158255.5538,3905.207583,FALSE,2,st. helena,jamestown,0.39921875
7,3,24,164889.7974,2830.088917,FALSE,0,gabon,libreville,0.448828125
7,3,25,174353.2381,6411.335625,TRUE,5,libya,tripoli,0.349609375
7,3,26,182437.1926,inf,TRUE,0,gabon,libreville,0.471875
7,3,27,192612.0327,1326.730042,TRUE,2,st. helena,jamestown,0.398828125
7,3,28,195551.8713,1191.565583,TRUE,6,south africa,cape town,0.250390625
7,3,29,198155.8453,5929.743625,FALSE,7,ghana,accra,0.349609375
7,3,30,206906.4587,2615.416125,TRUE,4,burundi,bujumbura,0.39921875
7,3,31,212644.401,1196.183125,TRUE,0,gabon,libreville,0.471484375
7,3,32,216292.3042,inf,TRUE,5,libya,tripoli,0.39921875
7,3,33,223102.997,2252.627333,TRUE,8,swaziland,mbabane,0.3
7,3,34,229219.0365,1220.559917,TRUE,9,gambia,banjul,0.3
7,3,35,234490.5515,2081.62325,FALSE,8,swaziland,mbabane,0.3
7,3,36,238560.8664,1971.181667,FALSE,9,gambia,banjul,0.3
7,3,37,242472.5077,3402.022667,FALSE,4,burundi,bujumbura,0.416796875
7,3,38,251129.4198,6279.97325,TRUE,7,ghana,accra,0.39921875
7,3,39,259521.7403,1205.337458,TRUE,5,libya,tripoli,0.398828125
7,3,40,262961.0614,1847.380459,TRUE,0,gabon,libreville,0.47109375
7,3,41,268235.6818,1879.598167,TRUE,2,st. helena,jamestown,0.3984375
7,3,42,272644.5158,1877.235459,TRUE,10,rwanda,kigali,0.3
7,3,43,277355.1496,2455.965917,TRUE,7,ghana,accra,0.424609375
7,3,44,283353.6987,4847.09175,FALSE,10,rwanda,kigali,0.3
7,3,45,293180.3115,3439.291083,FALSE,4,burundi,bujumbura,0.41953125
7,3,46,301811.2508,1460.687917,FALSE,8,swaziland,mbabane,0.349609375
7,3,47,305027.4041,10104.33704,FALSE,9,gambia,banjul,0.349609375
7,3,48,320325.688,1731.07975,TRUE,0,gabon,libreville,0.421484375
7,3,49,324374.184,1322.554125,TRUE,7,ghana,accra,0.42265625
7,3,50,328201.2243,1165.224417,TRUE,5,libya,tripoli,0.3984375
7,3,51,331935.0988,10377.87163,FALSE,10,rwanda,kigali,0.349609375
7,3,52,352395.0929,13506.30587,FALSE,8,swaziland,mbabane,0.39921875
7,3,53,369168.6074,inf,FALSE,9,gambia,banjul,0.39921875
7,3,54,383949.3133,inf,TRUE,4,burundi,bujumbura,0.469140625
7,3,55,392465.8438,2429.713,TRUE,2,st. helena,jamestown,0.373828125
7,3,56,396790.6337,inf,FALSE,8,swaziland,mbabane,0.448828125
7,3,57,411260.9976,2074.890792,FALSE,10,rwanda,kigali,0.39921875
7,3,58,414645.021,inf,FALSE,7,ghana,accra,0.423828125
7,3,59,435135.0255,2231.377625,TRUE,4,burundi,bujumbura,0.46875
7,3,60,439305.8391,1514.835291,FALSE,9,gambia,banjul,0.433984375
7,3,61,444236.0457,1862.115167,TRUE,8,swaziland,mbabane,0.4484375
7,3,62,448140.2364,1301.180416,TRUE,5,libya,tripoli,0.348828125
7,3,63,450762.1001,5608.267416,FALSE,10,rwanda,kigali,0.433203125
7,3,64,459389.0248,inf,FALSE,1,eritrea,asmara,0.3
7,3,65,471618.344,1353.14875,FALSE,9,gambia,banjul,0.434375
7,3,66,476028.9874,1250.671834,TRUE,4,burundi,bujumbura,0.468359375
7,3,67,479033.6679,1450.484083,FALSE,10,rwanda,kigali,0.43359375
7,3,68,485676.4967,3374.815625,TRUE,8,swaziland,mbabane,0.451171875
7,3,69,491267.6712,2525.473667,TRUE,7,ghana,accra,0.42109375
7,3,70,495487.0769,2906.833625,TRUE,0,gabon,libreville,0.421875
7,3,71,501780.4465,2569.515125,TRUE,3,burkina faso,ouagadougou,0.24921875
7,3,72,510178.6893,1229.029334,TRUE,6,south africa,cape town,0.20078125
7,3,73,512854.3182,inf,FALSE,9,gambia,banjul,0.446484375
7,3,74,523278.1771,1719.953791,TRUE,4,burundi,bujumbura,0.41875
7,3,75,527014.1241,3410.148291,FALSE,10,rwanda,kigali,0.433984375
7,3,76,533165.3667,1420.967084,FALSE,8,swaziland,mbabane,0.48828125
7,3,77,538053.0083,1112.918208,FALSE,11,egypt,cairo,0.3
7,3,78,540480.9578,1679.608709,TRUE,12,mayotte,mamoudzou,0.3
7,3,79,546769.9211,1027.429458,FALSE,11,egypt,cairo,0.3
7,3,80,550012.6885,1669.1215,FALSE,12,mayotte,mamoudzou,0.3
7,3,81,556749.7789,9760.672541,FALSE,1,eritrea,asmara,0.317578125
7,3,82,570308.8763,3996.150625,TRUE,8,swaziland,mbabane,0.512890625
7,3,83,577003.1578,1832.557417,FALSE,9,gambia,banjul,0.471875
7,3,84,582117.9662,1389.564917,TRUE,2,st. helena,jamestown,0.328125
7,3,85,584909.0981,1561.656416,TRUE,7,ghana,accra,0.417578125
7,3,86,588180.845,inf,FALSE,8,swaziland,mbabane,0.55
7,3,87,593923.4002,3419.283917,FALSE,10,rwanda,kigali,0.48359375
7,3,88,602252.5305,1009.483958,TRUE,11,egypt,cairo,0.250390625
7,3,89,604348.4274,7092.108208,FALSE,8,swaziland,mbabane,0.562890625
7,3,90,618264.0913,1587.472292,FALSE,12,mayotte,mamoudzou,0.349609375
7,3,91,621863.2703,inf,FALSE,9,gambia,banjul,0.521484375
7,3,92,635286.8598,1607.870083,FALSE,10,rwanda,kigali,0.533203125
7,3,93,640698.3692,inf,FALSE,8,swaziland,mbabane,0.58828125
7,3,94,648366.3428,inf,TRUE,9,gambia,banjul,0.54609375
7,3,95,662999.466,10719.34763,FALSE,10,rwanda,kigali,0.5515625
7,3,96,676684.8963,1420.890125,TRUE,8,swaziland,mbabane,0.587890625
7,3,97,681803.4178,inf,FALSE,9,gambia,banjul,0.558203125
7,3,98,693146.5732,1925.088709,TRUE,10,rwanda,kigali,0.543359375
7,3,99,696424.2739,1147.598917,FALSE,12,mayotte,mamoudzou,0.39921875
7,3,100,702352.4106,5616.589333,FALSE,8,swaziland,mbabane,0.6375
7,3,101,711945.2672,10253.09492,FALSE,9,gambia,banjul,0.56484375
7,3,102,724691.3876,inf,TRUE,8,swaziland,mbabane,0.674609375
7,3,103,745969.5705,4845.725375,FALSE,10,rwanda,kigali,0.56015625
7,3,104,755589.0287,2462.4775,TRUE,8,swaziland,mbabane,0.64765625
7,3,105,759581.4696,inf,TRUE,9,gambia,banjul,0.614453125
7,3,106,767876.9515,inf,FALSE,12,mayotte,mamoudzou,0.419140625
7,3,107,775123.8297,4318.827583,FALSE,9,gambia,banjul,0.621875
7,3,108,782508.9575,inf,TRUE,8,swaziland,mbabane,0.672265625
7,3,109,800318.0315,2443.96475,FALSE,10,rwanda,kigali,0.597265625
7,3,110,816715.6672,inf,TRUE,8,swaziland,mbabane,0.696875
7,3,111,833694.3883,4937.590458,TRUE,9,gambia,banjul,0.632421875
7,3,112,840416.7765,9444.574083,TRUE,8,swaziland,mbabane,0.701171875
7,3,113,853185.8281,inf,FALSE,10,rwanda,kigali,0.6046875
7,3,114,871432.5336,inf,TRUE,8,swaziland,mbabane,0.70703125
7,3,115,889628.719,19751.468,FALSE,9,gambia,banjul,0.63203125
7,3,116,912849.4024,inf,TRUE,8,swaziland,mbabane,0.706640625
7,3,117,929280.2014,2167.324459,TRUE,10,rwanda,kigali,0.602734375
7,3,118,933490.1083,5324.910292,FALSE,9,gambia,banjul,0.632421875
7,3,119,944077.5063,inf,TRUE,8,swaziland,mbabane,0.71796875
7,3,120,956039.9404,inf,FALSE,12,mayotte,mamoudzou,0.41953125
7,3,121,961473.6598,4833.901584,TRUE,8,swaziland,mbabane,0.719921875
7,3,122,968145.5145,3748.530417,FALSE,10,rwanda,kigali,0.60390625
7,3,123,974834.5065,1267.706583,TRUE,9,gambia,banjul,0.63203125
7,3,124,977714.7875,1984.626708,TRUE,0,gabon,libreville,0.377734375
7,3,125,983690.5124,5262.471375,TRUE,8,swaziland,mbabane,0.7203125
7,3,126,990408.1403,2270.940417,TRUE,7,ghana,accra,0.36796875
7,3,127,994137.5625,2154.998834,TRUE,4,burundi,bujumbura,0.391796875
7,3,128,999223.2194,8388.999208,FALSE,8,swaziland,mbabane,0.734765625
7,3,129,1011640.928,1947.585125,FALSE,10,rwanda,kigali,0.606640625
7,3,130,1015736.417,3161.667,FALSE,9,gambia,banjul,0.633203125
7,3,131,1021230.246,inf,TRUE,8,swaziland,mbabane,0.76640625
7,3,132,1033841.395,inf,FALSE,1,eritrea,asmara,0.3421875
7,3,133,1043847.265,2928.038917,TRUE,8,swaziland,mbabane,0.766015625
7,3,134,1048223.365,3484.881208,TRUE,9,gambia,banjul,0.6453125
7,3,135,1054336.737,inf,TRUE,8,swaziland,mbabane,0.784375
7,3,136,1058481.283,inf,TRUE,10,rwanda,kigali,0.628125
7,3,137,1067130.116,inf,TRUE,8,swaziland,mbabane,0.796484375
7,3,138,1071510.144,1985.446791,FALSE,12,mayotte,mamoudzou,0.419921875
7,3,139,1075220.234,1505.525292,TRUE,8,swaziland,mbabane,0.7875
7,3,140,1078013.403,1570.696666,TRUE,9,gambia,banjul,0.644921875
7,3,141,1081309.056,inf,TRUE,10,rwanda,kigali,0.637109375
7,3,142,1105486.197,inf,TRUE,8,swaziland,mbabane,0.811328125
7,3,143,1110423.756,1778.677125,TRUE,10,rwanda,kigali,0.63671875
7,3,144,1115161.926,1551.128208,TRUE,8,swaziland,mbabane,0.8109375
7,3,145,1118846.372,2438.496541,FALSE,9,gambia,banjul,0.66328125
7,3,146,1123825.029,1142.087625,TRUE,8,swaziland,mbabane,0.810546875
7,3,147,1126226.778,3559.022917,TRUE,5,libya,tripoli,0.3609375
7,3,148,1131240.445,1280.083042,TRUE,8,swaziland,mbabane,0.7609375
7,3,149,1133832.249,5905.243042,TRUE,9,gambia,banjul,0.665234375
7,3,150,1141183.734,7224.53575,FALSE,10,rwanda,kigali,0.643359375
7,3,151,1151019.762,inf,TRUE,9,gambia,banjul,0.68671875
7,3,152,1154764.329,1556.179292,TRUE,8,swaziland,mbabane,0.711328125
7,3,153,1157718.417,1050.773625,TRUE,11,egypt,cairo,0.20078125
7,3,154,1159829.091,inf,TRUE,10,rwanda,kigali,0.68671875
7,3,155,1166674.923,9523.560625,TRUE,9,gambia,banjul,0.699609375
7,3,156,1177599.914,inf,TRUE,10,rwanda,kigali,0.698828125
7,3,157,1204764.844,4352.2095,TRUE,9,gambia,banjul,0.7375
7,3,158,1210693.888,inf,TRUE,10,rwanda,kigali,0.7234375
7,3,159,1226796.501,6422.570291,TRUE,9,gambia,banjul,0.758984375
8,3,1,47576.371,7155.1139,TRUE,0,cameroon,yaounde,0.3
8,3,2,60525.9059,1635.7946,TRUE,0,cameroon,yaounde,0.3
8,3,3,67340.1132,5900.3799,FALSE,1,somalia,mogadishu,0.3
8,3,4,82357.9655,1002.7871,FALSE,1,somalia,mogadishu,0.3
8,3,5,100265.1432,6373.789,TRUE,2,botswana,gaborone,0.3
8,3,6,111041.6417,912.9755,FALSE,0,cameroon,yaounde,0.349609375
8,3,7,123615.8176,15502.5333,FALSE,2,botswana,gaborone,0.3
8,3,8,145832.0599,27890.7096,TRUE,1,somalia,mogadishu,0.349609375
8,3,9,180574.2878,878.5159,FALSE,0,cameroon,yaounde,0.39921875
8,3,10,193966.7932,12307.5958,FALSE,2,botswana,gaborone,0.349609375
8,3,11,219589.9429,10854.2176,FALSE,1,somalia,mogadishu,0.39921875
8,3,12,240872.7857,6489.8879,FALSE,0,cameroon,yaounde,0.433203125
8,3,13,275739.887,inf,TRUE,1,somalia,mogadishu,0.427734375
8,3,14,311533.5994,inf,FALSE,0,cameroon,yaounde,0.434375
8,3,15,353752.619,30206.8237,FALSE,2,botswana,gaborone,0.39296875
8,3,16,399652.7788,15357.4753,FALSE,1,somalia,mogadishu,0.43984375
8,3,17,430391.2046,40916.6715,FALSE,0,cameroon,yaounde,0.458984375
8,3,18,478717.676,6349.6743,FALSE,2,botswana,gaborone,0.397265625
8,3,19,499735.5691,6162.7034,FALSE,1,somalia,mogadishu,0.448046875
8,3,20,511818.0225,9048.0634,TRUE,0,cameroon,yaounde,0.471875
8,3,21,527533.8862,8120.7692,TRUE,2,botswana,gaborone,0.39765625
8,3,22,540753.2429,inf,TRUE,1,somalia,mogadishu,0.46015625
8,3,23,557044.9758,8541.587,TRUE,0,cameroon,yaounde,0.480859375
8,3,24,573358.7533,6538.5999,TRUE,1,somalia,mogadishu,0.469140625
8,3,25,582875.0153,1779.5909,TRUE,0,cameroon,yaounde,0.48046875
8,3,26,588100.8488,10540.0396,FALSE,3,libya,tripoli,0.3
8,3,27,604138.9496,4997.1653,FALSE,2,botswana,gaborone,0.403515625
8,3,28,614836.2622,1558.4215,TRUE,3,libya,tripoli,0.3
8,3,29,621075.6428,4047.2506,TRUE,1,somalia,mogadishu,0.46953125
8,3,30,627939.7055,inf,TRUE,4,rwanda,kigali,0.3
8,3,31,646209.5599,1750.8277,TRUE,0,cameroon,yaounde,0.469921875
8,3,32,651358.8819,1718.7724,TRUE,4,rwanda,kigali,0.3
8,3,33,655318.8004,22093.5788,TRUE,5,mauritania,nouakchott,0.3
8,3,34,684059.8179,2252.5418,TRUE,3,libya,tripoli,0.262109375
8,3,35,688893.6378,8492.6717,FALSE,5,mauritania,nouakchott,0.3
8,3,36,710277.6594,3692.9372,FALSE,1,somalia,mogadishu,0.519140625
8,3,37,719050.7322,1880.4245,FALSE,4,rwanda,kigali,0.349609375
8,3,38,729100.7994,3173.6658,TRUE,1,somalia,mogadishu,0.56875
8,3,39,735543.3334,2007.5888,TRUE,2,botswana,gaborone,0.403125
8,3,40,741481.2035,2536.7733,TRUE,1,somalia,mogadishu,0.570703125
8,3,41,747611.19,1760.0272,TRUE,0,cameroon,yaounde,0.4203125
8,3,42,752139.114,2583.4521,FALSE,5,mauritania,nouakchott,0.349609375
8,3,43,762136.3146,inf,TRUE,1,somalia,mogadishu,0.57109375
8,3,44,775588.0984,2675.2698,TRUE,4,rwanda,kigali,0.3625
8,3,45,780756.5256,2138.0488,TRUE,1,somalia,mogadishu,0.568359375
8,3,46,786007.345,8722.5175,TRUE,6,gambia,banjul,0.3
8,3,47,797014.4607,2056.944,TRUE,5,mauritania,nouakchott,0.34921875
8,3,48,803912.1973,inf,TRUE,6,gambia,banjul,0.3
8,3,49,810065.5961,1648.9602,TRUE,1,somalia,mogadishu,0.56796875
8,3,50,815038.4543,20151.9204,TRUE,7,gabon,libreville,0.3
8,3,51,840304.8455,3273.1178,TRUE,2,botswana,gaborone,0.452734375
8,3,52,846808.1653,4086.9237,TRUE,7,gabon,libreville,0.3
8,3,53,857423.5239,2962.9625,TRUE,1,somalia,mogadishu,0.592578125
8,3,54,863177.0387,4774.9708,TRUE,4,rwanda,kigali,0.387109375
8,3,55,870254.856,11808.6224,FALSE,6,gambia,banjul,0.349609375
8,3,56,887571.5129,1867.1031,TRUE,1,somalia,mogadishu,0.56640625
8,3,57,892039.055,1518.1793,TRUE,2,botswana,gaborone,0.45234375
8,3,58,898150.7439,2663.4451,TRUE,5,mauritania,nouakchott,0.361328125
8,3,59,905906.457,1932.0699,TRUE,7,gabon,libreville,0.299609375
8,3,60,912823.3171,2024.4022,TRUE,6,gambia,banjul,0.34921875
8,3,61,916877.8061,1706.0752,TRUE,4,rwanda,kigali,0.3625
8,3,62,920975.8839,22090.8691,TRUE,8,guinea,conakry,0.3
8,3,63,950818.8078,inf,TRUE,1,somalia,mogadishu,0.566796875
8,3,64,957459.6736,2960.8509,FALSE,8,guinea,conakry,0.3
8,3,65,968752.7146,9264.5881,TRUE,2,botswana,gaborone,0.455859375
8,3,66,980645.9903,1716.1148,TRUE,1,somalia,mogadishu,0.5171875
8,3,67,984924.287,2425.2142,TRUE,3,libya,tripoli,0.2546875
8,3,68,989554.9946,4527.5465,TRUE,9,guinea-bissau,bissau,0.3
8,3,69,997709.3241,2128.9592,TRUE,5,mauritania,nouakchott,0.35625
8,3,70,1005674.353,1356.1852,TRUE,9,guinea-bissau,bissau,0.3
8,3,71,1011430.931,1859.574,TRUE,6,gambia,banjul,0.328515625
8,3,72,1015223.227,3626.7534,FALSE,8,guinea,conakry,0.348828125
8,3,73,1024666.127,2710.8689,TRUE,0,cameroon,yaounde,0.420703125
8,3,74,1029922.297,1257.2885,TRUE,2,botswana,gaborone,0.40625
8,3,75,1033766.496,inf,TRUE,10,burundi,bujumbura,0.3
8,3,76,1054487.018,1869.3977,TRUE,7,gabon,libreville,0.25
8,3,77,1061644.202,2933.0181,TRUE,10,burundi,bujumbura,0.3
8,3,78,1070609.663,1162.5429,TRUE,9,guinea-bissau,bissau,0.250390625
8,3,79,1073875.872,2892.9639,TRUE,8,guinea,conakry,0.38203125
8,3,80,1081358.422,11782.8967,TRUE,11,equatorial guinea,malabo,0.3
8,3,81,1095622.259,1914.6888,TRUE,4,rwanda,kigali,0.362109375
8,3,82,1102358.188,13238.2121,FALSE,11,equatorial guinea,malabo,0.3
8,3,83,1125656.64,3412.6222,FALSE,10,burundi,bujumbura,0.349609375
8,3,84,1137189.8,4745.7328,TRUE,8,guinea,conakry,0.383984375
8,3,85,1145003.219,3936.3107,FALSE,1,somalia,mogadishu,0.566796875
8,3,86,1157479.66,4495.4445,FALSE,11,equatorial guinea,malabo,0.349609375
8,3,87,1170697.692,inf,FALSE,1,somalia,mogadishu,0.5921875
8,3,88,1187188.591,5110.3281,TRUE,10,burundi,bujumbura,0.39921875
8,3,89,1195569.787,2004.6085,TRUE,1,somalia,mogadishu,0.590234375
8,3,90,1203781.705,inf,FALSE,5,mauritania,nouakchott,0.369140625
8,3,91,1223729.653,8599.961,FALSE,11,equatorial guinea,malabo,0.39921875
8,3,92,1242687.19,1586.5151,TRUE,1,somalia,mogadishu,0.540625
9,4,1,30022.092,inf,TRUE,0,niger,niamey,0.3
9,4,2,65565.3571,1201.5506,TRUE,0,niger,niamey,0.3
9,4,3,69140.8308,1724.2515,TRUE,1,south africa,cape town,0.3
9,4,4,75862.4444,inf,TRUE,1,south africa,cape town,0.3
9,4,5,82027.8373,1452.3139,TRUE,2,libya,tripoli,0.3
9,4,6,86159.2998,1528.4044,TRUE,3,djibouti,djibouti,0.3
9,4,7,90416.1312,1202.0578,TRUE,2,libya,tripoli,0.3
9,4,8,93998.7828,1042.79,TRUE,3,djibouti,djibouti,0.3
9,4,9,97462.7887,2029.0902,TRUE,4,malawi,lilongwe,0.3
9,4,10,102687.8851,2997.8488,TRUE,5,guinea,conakry,0.3
9,4,11,109612.184,1538.4863,FALSE,4,malawi,lilongwe,0.3
9,4,12,136094.129,3113.9922,TRUE,5,guinea,conakry,0.3
9,4,13,144075.7277,1504.8045,TRUE,1,south africa,cape town,0.250390625
9,4,14,147898.0343,9939.0568,FALSE,0,niger,niamey,0.349609375
9,4,15,160849.8508,917.6811,TRUE,2,libya,tripoli,0.250390625
9,4,16,163947.5908,871.125,TRUE,3,djibouti,djibouti,0.250390625
9,4,17,168362.6005,2726.0039,TRUE,4,malawi,lilongwe,0.328515625
9,4,18,174753.8404,1192.7683,TRUE,6,kenya,nairobi,0.3
9,4,19,180386.2892,1425.3404,FALSE,7,sao tome and principe,sao tome,0.3
9,4,20,190015.6925,1092.5959,TRUE,6,kenya,nairobi,0.3
9,4,21,194490.6297,996.1563,TRUE,7,sao tome and principe,sao tome,0.3
9,4,22,197992.4063,1836.8268,TRUE,0,niger,niamey,0.3
9,4,23,201824.6822,2541.0975,TRUE,5,guinea,conakry,0.300390625
9,4,24,210596.7004,1326.9203,TRUE,8,uganda,kampala,0.3
9,4,25,214284.241,1188.0624,TRUE,9,tanzania,dar es salaam,0.3
9,4,26,219604.1514,3762.5803,FALSE,8,uganda,kampala,0.3
9,4,27,233106.1299,1390.4994,TRUE,9,tanzania,dar es salaam,0.3
9,4,28,237795.8644,2098.3221,TRUE,4,malawi,lilongwe,0.325
9,4,29,243105.6518,1006.1644,TRUE,6,kenya,nairobi,0.250390625
9,4,30,246572.5536,784.0522,TRUE,7,sao tome and principe,sao tome,0.250390625
9,4,31,249132.4494,943.3159,TRUE,10,senegal,dakar,0.3
9,4,32,251718.8465,2966.8565,TRUE,11,botswana,gaborone,0.3
9,4,33,257734.0631,1086.9433,TRUE,10,senegal,dakar,0.3
9,4,34,260228.9886,3422.5456,FALSE,11,botswana,gaborone,0.3
9,4,35,269127.3103,1563.2109,TRUE,8,uganda,kampala,0.250390625
9,4,36,272335.853,1687.8282,TRUE,12,mauritania,nouakchott,0.3
9,4,37,279854.0046,936.5614,TRUE,13,ethiopia,addis ababa,0.3
9,4,38,283760.5006,1641.9442,FALSE,12,mauritania,nouakchott,0.3
9,4,39,292546.9921,1034.7944,TRUE,13,ethiopia,addis ababa,0.3
9,4,40,296294.7315,1066.3697,TRUE,9,tanzania,dar es salaam,0.250390625
9,4,41,301788.0523,1260.1698,TRUE,14,rwanda,kigali,0.3
9,4,42,305512.1463,830.5054,TRUE,10,senegal,dakar,0.250390625
9,4,43,307744.6548,2468.1613,TRUE,14,rwanda,kigali,0.3
9,4,44,312077.4764,4090.0294,TRUE,11,botswana,gaborone,0.349609375
9,4,45,320041.8602,925.3562,TRUE,15,sierre leone,freetown,0.3
9,4,46,324788.4655,1540.8328,TRUE,16,somalia,mogadishu,0.3
9,4,47,329844.8195,1498.3538,TRUE,15,sierre leone,freetown,0.3
9,4,48,334388.9186,1932.9542,TRUE,16,somalia,mogadishu,0.3
9,4,49,339199.3105,1979.4937,TRUE,12,mauritania,nouakchott,0.250390625
9,4,50,345058.0448,inf,FALSE,5,guinea,conakry,0.30234375
9,4,51,360145.1738,1008.0444,TRUE,13,ethiopia,addis ababa,0.250390625
9,4,52,363326.2855,3002.1038,TRUE,14,rwanda,kigali,0.349609375
9,4,53,368189.9322,1921.1507,TRUE,11,botswana,gaborone,0.34921875
9,4,54,373026.7248,3628.3007,TRUE,4,malawi,lilongwe,0.328515625
9,4,55,380047.5576,1205.914,TRUE,15,sierre leone,freetown,0.250390625
9,4,56,383692.8241,3256.9713,TRUE,16,somalia,mogadishu,0.349609375
9,4,57,389866.1877,1436.52,TRUE,17,angola,luanda,0.3
9,4,58,392833.8128,1574.6972,TRUE,18,mayotte,mamoudzou,0.3
9,4,59,412329.5635,1960.2298,TRUE,17,angola,luanda,0.3
9,4,60,416581.2508,2138.0749,FALSE,18,mayotte,mamoudzou,0.3
9,4,61,427665.6241,1769.1695,TRUE,14,rwanda,kigali,0.34921875
9,4,62,431872.9763,1965.2602,TRUE,16,somalia,mogadishu,0.3
9,4,63,436170.3347,2479.035,TRUE,19,ivory coast,yamoussoukro,0.3
9,4,64,444807.4945,1462.8955,TRUE,20,mali,bamako,0.3
9,4,65,447954.3276,3161.7522,FALSE,19,ivory coast,yamoussoukro,0.3
9,4,66,461893.7867,5143.4883,TRUE,20,mali,bamako,0.3
9,4,67,468958.1316,8586.7824,FALSE,11,botswana,gaborone,0.398828125
9,4,68,479334.6591,1083,TRUE,17,angola,luanda,0.250390625
9,4,69,482309.5487,4292.1435,FALSE,18,mayotte,mamoudzou,0.349609375
9,4,70,488249.879,1079.145,TRUE,1,south africa,cape town,0.20078125
9,4,71,490974.7869,2184.2715,TRUE,0,niger,niamey,0.270703125
9,4,72,495501.7259,934.6702,TRUE,3,djibouti,djibouti,0.20078125
9,4,73,498301.4269,1041.1868,TRUE,2,libya,tripoli,0.20078125
9,4,74,501797.5395,9226.424,FALSE,19,ivory coast,yamoussoukro,0.349609375
9,4,75,522204.6617,13757.2413,FALSE,11,botswana,gaborone,0.4328125
9,4,76,537377.877,1436.3873,TRUE,20,mali,bamako,0.250390625
9,4,77,540811.33,2510.9143,TRUE,14,rwanda,kigali,0.337109375
9,4,78,545051.098,1865.1648,FALSE,18,mayotte,mamoudzou,0.39921875
9,4,79,554101.669,2477.2646,FALSE,19,ivory coast,yamoussoukro,0.39921875
9,4,80,562971.2332,2406.9244,TRUE,11,botswana,gaborone,0.426953125
9,4,81,568039.2237,1910.4206,FALSE,4,malawi,lilongwe,0.378125
9,4,82,577596.1894,1718.774,FALSE,18,mayotte,mamoudzou,0.412109375
9,4,83,587095.2556,3928.4389,FALSE,5,guinea,conakry,0.351953125
9,4,84,599385.2048,2940.8344,FALSE,19,ivory coast,yamoussoukro,0.448828125
9,4,85,608342.682,3084.657,FALSE,8,uganda,kampala,0.3
9,4,86,612925.6978,1003.8875,TRUE,7,sao tome and principe,sao tome,0.20078125
9,4,87,615760.1537,5093.1076,TRUE,4,malawi,lilongwe,0.401953125
9,4,88,625448.7278,1572.9617,TRUE,19,ivory coast,yamoussoukro,0.4484375
9,4,89,630964.3709,5727.38,FALSE,18,mayotte,mamoudzou,0.43671875
9,4,90,645596.0471,5656.5457,TRUE,11,botswana,gaborone,0.434375
9,4,91,653489.5588,1058.0261,TRUE,6,kenya,nairobi,0.20078125
9,4,92,657759.4865,10347.7659,FALSE,5,guinea,conakry,0.37265625
9,4,93,671947.0894,2105.6196,TRUE,19,ivory coast,yamoussoukro,0.423828125
9,4,94,678070.4648,1013.0412,TRUE,10,senegal,dakar,0.20078125
9,4,95,680187.112,1867.2552,TRUE,18,mayotte,mamoudzou,0.436328125
9,4,96,688839.0323,1720.0582,TRUE,4,malawi,lilongwe,0.4015625
9,4,97,692956.8302,1466.648,TRUE,16,somalia,mogadishu,0.250390625
9,4,98,696520.7113,1197.2614,TRUE,9,tanzania,dar es salaam,0.20078125
9,4,99,700015.9954,3446.9302,FALSE,12,mauritania,nouakchott,0.3
9,4,100,706057.133,1833.6025,TRUE,14,rwanda,kigali,0.33046875
9,4,101,710211.6493,2056.2643,TRUE,11,botswana,gaborone,0.433984375
9,4,102,714050.9361,2103.7383,TRUE,8,uganda,kampala,0.299609375
9,4,103,717912.389,1313.9123,TRUE,15,sierre leone,freetown,0.20078125
9,4,104,721277.9495,2893.94,TRUE,13,ethiopia,addis ababa,0.2625
9,4,105,727906.6394,1910.9103,TRUE,21,gambia,banjul,0.3
9,4,106,733473.5263,4773.5447,FALSE,5,guinea,conakry,0.383984375
9,4,107,744336.1874,2735.6833,FALSE,21,gambia,banjul,0.3
9,4,108,748267.2378,1576.6568,FALSE,18,mayotte,mamoudzou,0.4859375
9,4,109,754617.1826,2093.3584,TRUE,22,liberia,monrovia,0.3
9,4,110,762247.692,2214.3188,FALSE,19,ivory coast,yamoussoukro,0.45546875
9,4,111,775975.4207,inf,FALSE,22,liberia,monrovia,0.3
9,4,112,793243.1366,1363.898,TRUE,18,mayotte,mamoudzou,0.485546875
9,4,113,798085.9336,2200.0319,TRUE,4,malawi,lilongwe,0.401171875
9,4,114,802617.2104,1376.7604,TRUE,21,gambia,banjul,0.250390625
9,4,115,806947.4291,1924.6066,TRUE,19,ivory coast,yamoussoukro,0.412109375
9,4,116,812547.0629,1942.4382,TRUE,11,botswana,gaborone,0.421875
9,4,117,817227.486,3231.4474,TRUE,12,mauritania,nouakchott,0.325390625
9,4,118,827903.5161,1555.2479,TRUE,18,mayotte,mamoudzou,0.4359375
9,4,119,831784.7399,1410.6296,FALSE,22,liberia,monrovia,0.349609375
9,4,120,838268.6774,1715.6026,TRUE,5,guinea,conakry,0.38359375
9,4,121,842294.4277,1723.3396,TRUE,23,equatorial guinea,malabo,0.3
9,4,122,846063.24,1021.7017,TRUE,17,angola,luanda,0.20078125
9,4,123,848795.5516,1621.3343,TRUE,23,equatorial guinea,malabo,0.3
9,4,124,852156.0686,1267.8442,TRUE,24,zambia,lusaka,0.3
9,4,125,855818.7064,1777.1095,TRUE,25,gabon,libreville,0.3
9,4,126,860572.6377,4534.1474,FALSE,24,zambia,lusaka,0.3
9,4,127,866751.5924,1984.8084,TRUE,25,gabon,libreville,0.3
9,4,128,871581.8618,2150.5817,TRUE,26,lesotho,maseru,0.3
9,4,129,875454.2277,1273.6308,TRUE,22,liberia,monrovia,0.34921875
9,4,130,881003.2091,2198.8154,FALSE,26,lesotho,maseru,0.3
9,4,131,887780.6446,1845.2515,TRUE,27,tunisia,tunis,0.3
9,4,132,891352.0714,5545.9452,FALSE,20,mali,bamako,0.3
9,4,133,902823.423,1490.8358,TRUE,27,tunisia,tunis,0.3
9,4,134,905369.1529,1450.6628,TRUE,23,equatorial guinea,malabo,0.250390625
9,4,135,908591.8184,4831.0023,FALSE,24,zambia,lusaka,0.349609375
9,4,136,915103.3699,1602.9748,TRUE,4,malawi,lilongwe,0.3765625
9,4,137,919074.001,2024.2615,TRUE,25,gabon,libreville,0.251171875
9,4,138,924962.6836,1162.5767,TRUE,28,namibia,windhoek,0.3
9,4,139,928978.45,1776.4183,FALSE,26,lesotho,maseru,0.349609375
9,4,140,935328.6007,1559.9275,TRUE,28,namibia,windhoek,0.3
9,4,141,938535.035,2928.6682,FALSE,12,mauritania,nouakchott,0.3375
9,4,142,949582.7053,3224.4069,TRUE,11,botswana,gaborone,0.422265625
9,4,143,956124.241,20823.5057,FALSE,24,zambia,lusaka,0.39921875
9,4,144,979369.3603,1015.5013,TRUE,27,tunisia,tunis,0.250390625
9,4,145,981935.2978,3800.2023,FALSE,26,lesotho,maseru,0.39921875
9,4,146,989337.2133,1596.6187,TRUE,22,liberia,monrovia,0.308984375
9,4,147,993705.3515,1016.1386,TRUE,24,zambia,lusaka,0.398828125
9,4,148,996826.0917,1182.6223,TRUE,28,namibia,windhoek,0.250390625
9,4,149,999735.0346,1764.5597,TRUE,14,rwanda,kigali,0.280859375
9,4,150,1003442.626,5674.1133,TRUE,19,ivory coast,yamoussoukro,0.4125
9,4,151,1014933.671,1897.36,FALSE,18,mayotte,mamoudzou,0.436328125
9,4,152,1021964.235,3570.7591,FALSE,26,lesotho,maseru,0.448828125
9,4,153,1030771.923,inf,FALSE,5,guinea,conakry,0.426953125
9,4,154,1041813.461,3596.9955,TRUE,20,mali,bamako,0.328515625
9,4,155,1050678.788,5153.27,FALSE,26,lesotho,maseru,0.47421875
9,4,156,1057505.606,1680.5799,TRUE,8,uganda,kampala,0.26171875
9,4,157,1061141.234,3641.1068,TRUE,24,zambia,lusaka,0.4484375
9,4,158,1066458.611,1618.647,TRUE,5,guinea,conakry,0.4265625
9,4,159,1071272.063,1575.976,TRUE,26,lesotho,maseru,0.455078125
9,4,160,1075591.44,4172.5502,TRUE,11,botswana,gaborone,0.46796875
9,4,161,1083498.224,27274.0245,FALSE,24,zambia,lusaka,0.460546875
9,4,162,1112595.628,1597.1048,TRUE,11,botswana,gaborone,0.418359375
9,4,163,1117884.032,2397.7677,FALSE,12,mauritania,nouakchott,0.343359375
9,4,164,1131597.573,1582.0889,TRUE,24,zambia,lusaka,0.46015625
9,4,165,1135184.678,1828.1565,FALSE,26,lesotho,maseru,0.50234375
9,4,166,1141491.351,2003.6244,TRUE,18,mayotte,mamoudzou,0.38671875
9,4,167,1150027.767,1037.1144,TRUE,13,ethiopia,addis ababa,0.212890625
9,4,168,1153194.054,3561.9621,FALSE,19,ivory coast,yamoussoukro,0.462109375
9,4,169,1161504.467,3301.0635,FALSE,26,lesotho,maseru,0.551171875
9,4,170,1172373.153,inf,FALSE,5,guinea,conakry,0.447265625
9,4,171,1182542.409,9256.7939,FALSE,26,lesotho,maseru,0.55703125
9,4,172,1195358.647,1947.5017,TRUE,19,ivory coast,yamoussoukro,0.46171875
9,4,173,1203901.886,14483.4175,TRUE,24,zambia,lusaka,0.484765625
9,4,174,1228242.372,1927.6381,FALSE,26,lesotho,maseru,0.603515625
10,4,1,18364.5615,1985.1129,TRUE,0,nigeria,abuja,0.3
10,4,2,24790.1032,752.5467,TRUE,0,nigeria,abuja,0.3
10,4,3,28339.0873,1507.8604,FALSE,1,mayotte,mamoudzou,0.3
10,4,4,41087.0611,2695.6734,FALSE,1,mayotte,mamoudzou,0.3
10,4,5,60628.9298,2107.8405,TRUE,2,djibouti,djibouti,0.3
10,4,6,65525.6485,1338.0309,TRUE,3,liberia,monrovia,0.3
10,4,7,68687.1469,3109.6948,TRUE,2,djibouti,djibouti,0.3
10,4,8,79653.1254,4862.6258,FALSE,3,liberia,monrovia,0.3
10,4,9,89988.3564,4007.2784,TRUE,0,nigeria,abuja,0.349609375
10,4,10,95290.6627,4873.3906,FALSE,1,mayotte,mamoudzou,0.349609375
10,4,11,105057.047,1416.619,TRUE,4,madagascar,antananarivo,0.3
10,4,12,111630.3981,1869.0782,TRUE,5,botswana,gaborone,0.3
10,4,13,116330.446,8411.1455,FALSE,4,madagascar,antananarivo,0.3
10,4,14,129023.164,3031.394,TRUE,5,botswana,gaborone,0.3
10,4,15,135586.0663,1524.5706,TRUE,2,djibouti,djibouti,0.250390625
10,4,16,139103.6759,3754.8848,TRUE,0,nigeria,abuja,0.39921875
10,4,17,143997.7743,7439.8918,FALSE,3,liberia,monrovia,0.349609375
10,4,18,155062.9744,4359.5196,TRUE,1,mayotte,mamoudzou,0.39921875
10,4,19,163071.2753,1195.1985,TRUE,6,uganda,kampala,0.3
10,4,20,165755.9579,5093.5825,TRUE,0,nigeria,abuja,0.448828125
10,4,21,172138.8368,10245.6554,TRUE,6,uganda,kampala,0.3
10,4,22,184276.5752,2159.908,FALSE,4,madagascar,antananarivo,0.349609375
10,4,23,188843.9299,3576.5346,FALSE,1,mayotte,mamoudzou,0.444921875
10,4,24,200440.361,inf,TRUE,0,nigeria,abuja,0.45
10,4,25,221084.3068,2789.1564,TRUE,5,botswana,gaborone,0.301953125
10,4,26,226824.067,4542.3738,TRUE,3,liberia,monrovia,0.39921875
10,4,27,277704.7196,3750.6494,TRUE,1,mayotte,mamoudzou,0.46953125
10,4,28,283780.432,1215.9469,TRUE,6,uganda,kampala,0.250390625
10,4,29,287172.5768,inf,TRUE,0,nigeria,abuja,0.499609375
10,4,30,293226.2965,4401.1217,FALSE,4,madagascar,antananarivo,0.3984375
10,4,31,304054.5734,2773.9075,TRUE,3,liberia,monrovia,0.398828125
10,4,32,308698.204,2893.2591,TRUE,0,nigeria,abuja,0.5125
10,4,33,312686.4716,5492.8468,FALSE,1,mayotte,mamoudzou,0.472265625
10,4,34,322920.1245,5354.2858,TRUE,4,madagascar,antananarivo,0.398828125
10,4,35,330906.0983,1013.175,TRUE,0,nigeria,abuja,0.512109375
10,4,36,333068.3661,2934.9478,TRUE,5,botswana,gaborone,0.3265625
10,4,37,338457.7889,2707.5933,TRUE,1,mayotte,mamoudzou,0.47890625
10,4,38,346773.1032,2726.2695,TRUE,3,liberia,monrovia,0.4171875
10,4,39,351337.1424,945.2118,TRUE,7,eritrea,asmara,0.3
10,4,40,355476.0267,871.6507,TRUE,8,ghana,accra,0.3
10,4,41,358225.1097,inf,TRUE,7,eritrea,asmara,0.3
10,4,42,365390.4537,2061.8488,TRUE,8,ghana,accra,0.3
10,4,43,368824.5531,1849.7503,TRUE,0,nigeria,abuja,0.503125
10,4,44,373538.0066,1079.3543,TRUE,9,ethiopia,addis ababa,0.3
10,4,45,377001.1388,1675.1774,FALSE,1,mayotte,mamoudzou,0.512890625
10,4,46,384201.6716,5549.8519,TRUE,9,ethiopia,addis ababa,0.3
10,4,47,391845.4241,2032.9189,TRUE,4,madagascar,antananarivo,0.3984375
10,4,48,396152.7568,2731.8686,TRUE,1,mayotte,mamoudzou,0.5375
10,4,49,400765.9438,1768.2604,TRUE,3,liberia,monrovia,0.405078125
10,4,50,404314.7234,1961.5024,TRUE,7,eritrea,asmara,0.250390625
10,4,51,407603.6515,1832.7232,TRUE,10,sao tome and principe,sao tome,0.3
10,4,52,411528.5225,1461.7217,TRUE,0,nigeria,abuja,0.453515625
10,4,53,414164.4784,1070.8672,TRUE,10,sao tome and principe,sao tome,0.3
10,4,54,417072.886,4944.4802,TRUE,1,mayotte,mamoudzou,0.562109375
10,4,55,425779.236,2297.034,TRUE,8,ghana,accra,0.274609375
10,4,56,429346.9299,inf,FALSE,11,swaziland,mbabane,0.3
10,4,57,438555.0581,4976.1757,FALSE,1,mayotte,mamoudzou,0.58671875
10,4,58,446644.8144,4398.707,FALSE,11,swaziland,mbabane,0.3
10,4,59,454573.6485,2082.6304,TRUE,9,ethiopia,addis ababa,0.250390625
10,4,60,458571.5042,3990.8436,FALSE,1,mayotte,mamoudzou,0.636328125
10,4,61,465910.2206,4386.0647,TRUE,5,botswana,gaborone,0.339453125
10,4,62,471993.4281,3911.8378,TRUE,1,mayotte,mamoudzou,0.6859375
10,4,63,478976.7303,inf,TRUE,10,sao tome and principe,sao tome,0.349609375
10,4,64,483014.8008,4418.4862,FALSE,1,mayotte,mamoudzou,0.698046875
10,4,65,492708.3465,4363.0145,FALSE,4,madagascar,antananarivo,0.398828125
10,4,66,502548.5557,4339.7181,FALSE,1,mayotte,mamoudzou,0.734375
10,4,67,509778.5444,1893.636,FALSE,11,swaziland,mbabane,0.349609375
10,4,68,514998.5889,3014.6558,FALSE,1,mayotte,mamoudzou,0.768359375
10,4,69,521227.9869,2467.7517,TRUE,2,djibouti,djibouti,0.2375
10,4,70,528208.3024,1955.8763,TRUE,1,mayotte,mamoudzou,0.76796875
10,4,71,532422.8765,689.3683,TRUE,10,sao tome and principe,sao tome,0.3
10,4,72,535028.8772,1580.2669,TRUE,1,mayotte,mamoudzou,0.767578125
10,4,73,539312.0988,4205.0926,TRUE,3,liberia,monrovia,0.4171875
10,4,74,544968.5308,1079.6174,FALSE,1,mayotte,mamoudzou,0.77109375
10,4,75,552120.8202,1479.2933,TRUE,11,swaziland,mbabane,0.34921875
10,4,76,555856.7437,1207.5261,FALSE,1,mayotte,mamoudzou,0.818359375
10,4,77,562170.684,1262.4223,TRUE,0,nigeria,abuja,0.40390625
10,4,78,564456.7077,1006.4731,TRUE,1,mayotte,mamoudzou,0.76875
10,4,79,573933.3157,761.8784,TRUE,12,angola,luanda,0.3
10,4,80,577281.7473,inf,TRUE,1,mayotte,mamoudzou,0.818359375
10,4,81,627788.7385,1980.4731,TRUE,12,angola,luanda,0.3
10,4,82,631374.297,931.7713,TRUE,1,mayotte,mamoudzou,0.76875
10,4,83,634194.8357,3544.4362,FALSE,4,madagascar,antananarivo,0.4484375
10,4,84,642412.1359,901.9348,TRUE,1,mayotte,mamoudzou,0.719140625
10,4,85,647744.1129,2933.102,TRUE,3,liberia,monrovia,0.429296875
10,4,86,651980.6989,inf,FALSE,5,botswana,gaborone,0.35234375
10,4,87,659689.8283,851.775,TRUE,1,mayotte,mamoudzou,0.66953125
10,4,88,663347.3686,3533.8616,FALSE,4,madagascar,antananarivo,0.476171875
10,4,89,669757.8347,1555.3269,TRUE,8,ghana,accra,0.23671875
10,4,90,672637.3085,2343.7707,FALSE,11,swaziland,mbabane,0.398828125
10,4,91,678326.7664,5692.3067,FALSE,6,uganda,kampala,0.3
10,4,92,686614.3771,3053.7832,TRUE,12,angola,luanda,0.300390625
10,4,93,691129.7089,4885.3188,FALSE,4,madagascar,antananarivo,0.4765625
10,4,94,698397.739,1018.2606,TRUE,1,mayotte,mamoudzou,0.619921875
10,4,95,701547.4718,3420.5504,TRUE,7,eritrea,asmara,0.3
10,4,96,706156.9015,1388.2155,TRUE,11,swaziland,mbabane,0.3984375
10,4,97,710902.1848,2753.8105,TRUE,3,liberia,monrovia,0.4359375
10,4,98,715057.6276,1161.4279,TRUE,13,tunisia,tunis,0.3
10,4,99,717685.1192,1460.011,TRUE,14,zambia,lusaka,0.3
10,4,100,720370.6509,836.6145,TRUE,13,tunisia,tunis,0.3
10,4,101,722098.5457,757.4532,TRUE,14,zambia,lusaka,0.3
10,4,102,724127.2864,823.7137,TRUE,15,gambia,banjul,0.3
10,4,103,726599.3283,1280.8392,TRUE,16,burundi,bujumbura,0.3
10,4,104,734335.549,3196.3929,TRUE,15,gambia,banjul,0.3
10,4,105,739818.5761,5011.4632,TRUE,16,burundi,bujumbura,0.3
10,4,106,747536.081,2434.911,FALSE,4,madagascar,antananarivo,0.476953125
10,4,107,752719.4529,2214.5522,TRUE,17,burkina faso,ouagadougou,0.3
10,4,108,759633.4233,999.7292,TRUE,10,sao tome and principe,sao tome,0.250390625
10,4,109,763326.2614,3537.7774,FALSE,17,burkina faso,ouagadougou,0.3
10,4,110,770709.5099,4236.5207,FALSE,14,zambia,lusaka,0.349609375
10,4,111,777444.1898,4855.0801,FALSE,13,tunisia,tunis,0.349609375
10,4,112,785275.8567,1371.1777,FALSE,1,mayotte,mamoudzou,0.6203125
10,4,113,792625.4591,3300.5577,TRUE,15,gambia,banjul,0.349609375
10,4,114,797252.6367,inf,TRUE,11,swaziland,mbabane,0.411328125
10,4,115,801099.2126,3140.8561,TRUE,5,botswana,gaborone,0.387109375
10,4,116,805647.424,2108.5321,TRUE,16,burundi,bujumbura,0.250390625
10,4,117,809980.5205,5719.5202,TRUE,6,uganda,kampala,0.317578125
10,4,118,818680.9306,2940.0472,TRUE,4,madagascar,antananarivo,0.51484375
10,4,119,830264.7713,2334.3322,TRUE,14,zambia,lusaka,0.325
10,4,120,834337.0253,3503.8931,FALSE,17,burkina faso,ouagadougou,0.349609375
10,4,121,844619.1732,1132.6305,FALSE,13,tunisia,tunis,0.39921875
10,4,122,847901.7308,3909.324,TRUE,3,liberia,monrovia,0.451953125
10,4,123,853990.0636,2557.028,FALSE,4,madagascar,antananarivo,0.562890625
10,4,124,859018.4328,3759.4397,TRUE,1,mayotte,mamoudzou,0.669921875
10,4,125,869133.5658,3452.315,TRUE,15,gambia,banjul,0.39921875
10,4,126,876002.5436,1350.9781,TRUE,1,mayotte,mamoudzou,0.66953125
10,4,127,880112.1274,2532.7867,TRUE,4,madagascar,antananarivo,0.5625
10,4,128,886567.3147,943.6035,TRUE,13,tunisia,tunis,0.398828125
10,4,129,888494.3906,2572.468,TRUE,7,eritrea,asmara,0.287890625
10,4,130,892338.4308,1245.4296,TRUE,1,mayotte,mamoudzou,0.669140625
10,4,131,895968.5547,1921.3282,TRUE,12,angola,luanda,0.25078125
10,4,132,899597.5625,3774.3056,FALSE,17,burkina faso,ouagadougou,0.39921875
10,4,133,907229.1883,5375.625,TRUE,4,madagascar,antananarivo,0.562890625
10,4,134,915272.2552,3751.5959,FALSE,15,gambia,banjul,0.402734375
10,4,135,920935.9654,1026.9478,TRUE,1,mayotte,mamoudzou,0.61953125
10,4,136,923996.514,1939.3622,FALSE,11,swaziland,mbabane,0.428125
10,4,137,930598.7808,2667.0566,TRUE,5,botswana,gaborone,0.38671875
10,4,138,934593.9468,4193.9339,TRUE,3,liberia,monrovia,0.4765625
10,4,139,940552.217,2893.6102,FALSE,17,burkina faso,ouagadougou,0.431640625
10,4,140,948082.2565,4569.5426,TRUE,4,madagascar,antananarivo,0.5875
10,4,141,954909.6087,2329.3821,TRUE,9,ethiopia,addis ababa,0.22578125
10,4,142,959471.9633,872.7504,TRUE,13,tunisia,tunis,0.3984375
10,4,143,961291.8268,1179.9837,TRUE,4,madagascar,antananarivo,0.587109375
10,4,144,968073.8984,3992.4434,TRUE,3,liberia,monrovia,0.494921875
10,4,145,973573.8525,2138.0191,TRUE,17,burkina faso,ouagadougou,0.43125
10,4,146,978964.1001,2637.6703,TRUE,15,gambia,banjul,0.403125
10,4,147,982919.9543,7037.8281,TRUE,11,swaziland,mbabane,0.469140625
10,4,148,993056.4659,inf,FALSE,4,madagascar,antananarivo,0.63671875
10,4,149,1073047.05,1668.6983,TRUE,11,swaziland,mbabane,0.46875
10,4,150,1076724.825,1535.9064,FALSE,4,madagascar,antananarivo,0.636328125
10,4,151,1086379.578,3059.2525,TRUE,3,liberia,monrovia,0.49453125
10,4,152,1090650.339,1910.3465,TRUE,4,madagascar,antananarivo,0.62421875
10,4,153,1095185.783,2273.9575,TRUE,1,mayotte,mamoudzou,0.569921875
10,4,154,1104416.38,5327.6808,TRUE,17,burkina faso,ouagadougou,0.431640625
10,4,155,1112538.816,3595.9589,TRUE,14,zambia,lusaka,0.349609375
10,4,156,1117262.864,3259.8146,TRUE,4,madagascar,antananarivo,0.624609375
10,4,157,1122963.255,865.4716,TRUE,13,tunisia,tunis,0.348828125
10,4,158,1124684.828,3860.8058,TRUE,15,gambia,banjul,0.408984375
10,4,159,1130384.005,2562.7213,TRUE,6,uganda,kampala,0.31640625
10,4,160,1134283.586,3746.2877,TRUE,5,botswana,gaborone,0.398828125
10,4,161,1139891.014,1732.8231,FALSE,11,swaziland,mbabane,0.480859375
